File: Figure1/UV-vis/Sample347.Sample.csv
Created as New Dataset,
nm,A
800.0,0.0067
799.8,0.0074
799.6,0.0066
799.4,0.0069
799.2,0.0067
799.0,0.0076
798.8,0.0071
798.6,0.0063
798.4,0.0074
798.2,0.0073
798.0,0.0074
797.8,0.0071
797.6,0.0064
797.4,0.0070
797.2,0.0081
797.0,0.0068
796.8,0.0062
796.6,0.0079
796.4,0.0086
796.2,0.0068
796.0,0.0078
795.8,0.0073
795.6,0.0078
795.4,0.0058
795.2,0.0072
795.0,0.0076
794.8,0.0069
794.6,0.0078
794.4,0.0070
794.2,0.0079
794.0,0.0076
793.8,0.0073
793.6,0.0073
793.4,0.0063
793.2,0.0074
793.0,0.0069
792.8,0.0083
792.6,0.0066
792.4,0.0070
792.2,0.0074
792.0,0.0072
791.8,0.0066
791.6,0.0074
791.4,0.0070
791.2,0.0078
791.0,0.0073
790.8,0.0067
790.6,0.0080
790.4,0.0068
790.2,0.0081
790.0,0.0077
789.8,0.0072
789.6,0.0061
789.4,0.0074
789.2,0.0073
789.0,0.0081
788.8,0.0062
788.6,0.0074
788.4,0.0072
788.2,0.0075
788.0,0.0071
787.8,0.0079
787.6,0.0073
787.4,0.0076
787.2,0.0071
787.0,0.0076
786.8,0.0071
786.6,0.0068
786.4,0.0079
786.2,0.0074
786.0,0.0071
785.8,0.0069
785.6,0.0066
785.4,0.0074
785.2,0.0069
785.0,0.0068
784.8,0.0071
784.6,0.0071
784.4,0.0076
784.2,0.0069
784.0,0.0083
783.8,0.0073
783.6,0.0068
783.4,0.0064
783.2,0.0081
783.0,0.0079
782.8,0.0066
782.6,0.0074
782.4,0.0073
782.2,0.0074
782.0,0.0075
781.8,0.0088
781.6,0.0065
781.4,0.0073
781.2,0.0069
781.0,0.0069
780.8,0.0071
780.6,0.0074
780.4,0.0069
780.2,0.0065
780.0,0.0067
779.8,0.0081
779.6,0.0066
779.4,0.0074
779.2,0.0075
779.0,0.0073
778.8,0.0073
778.6,0.0070
778.4,0.0076
778.2,0.0070
778.0,0.0073
777.8,0.0071
777.6,0.0081
777.4,0.0088
777.2,0.0072
777.0,0.0084
776.8,0.0079
776.6,0.0083
776.4,0.0071
776.2,0.0075
776.0,0.0075
775.8,0.0084
775.6,0.0068
775.4,0.0079
775.2,0.0081
775.0,0.0072
774.8,0.0068
774.6,0.0090
774.4,0.0069
774.2,0.0074
774.0,0.0073
773.8,0.0079
773.6,0.0074
773.4,0.0076
773.2,0.0079
773.0,0.0077
772.8,0.0072
772.6,0.0078
772.4,0.0073
772.2,0.0071
772.0,0.0081
771.8,0.0081
771.6,0.0076
771.4,0.0069
771.2,0.0073
771.0,0.0076
770.8,0.0074
770.6,0.0080
770.4,0.0069
770.2,0.0076
770.0,0.0085
769.8,0.0073
769.6,0.0070
769.4,0.0081
769.2,0.0077
769.0,0.0083
768.8,0.0082
768.6,0.0075
768.4,0.0078
768.2,0.0070
768.0,0.0075
767.8,0.0067
767.6,0.0071
767.4,0.0087
767.2,0.0076
767.0,0.0070
766.8,0.0077
766.6,0.0079
766.4,0.0078
766.2,0.0073
766.0,0.0077
765.8,0.0074
765.6,0.0071
765.4,0.0082
765.2,0.0087
765.0,0.0078
764.8,0.0080
764.6,0.0081
764.4,0.0079
764.2,0.0077
764.0,0.0076
763.8,0.0073
763.6,0.0070
763.4,0.0082
763.2,0.0086
763.0,0.0078
762.8,0.0085
762.6,0.0082
762.4,0.0084
762.2,0.0080
762.0,0.0083
761.8,0.0078
761.6,0.0080
761.4,0.0082
761.2,0.0081
761.0,0.0085
760.8,0.0083
760.6,0.0072
760.4,0.0074
760.2,0.0075
760.0,0.0078
759.8,0.0078
759.6,0.0078
759.4,0.0074
759.2,0.0079
759.0,0.0074
758.8,0.0077
758.6,0.0081
758.4,0.0085
758.2,0.0084
758.0,0.0083
757.8,0.0087
757.6,0.0080
757.4,0.0079
757.2,0.0087
757.0,0.0087
756.8,0.0081
756.6,0.0086
756.4,0.0077
756.2,0.0083
756.0,0.0082
755.8,0.0080
755.6,0.0079
755.4,0.0078
755.2,0.0082
755.0,0.0081
754.8,0.0084
754.6,0.0095
754.4,0.0079
754.2,0.0089
754.0,0.0085
753.8,0.0080
753.6,0.0085
753.4,0.0081
753.2,0.0084
753.0,0.0084
752.8,0.0085
752.6,0.0083
752.4,0.0089
752.2,0.0084
752.0,0.0074
751.8,0.0076
751.6,0.0082
751.4,0.0085
751.2,0.0083
751.0,0.0088
750.8,0.0077
750.6,0.0086
750.4,0.0083
750.2,0.0076
750.0,0.0079
749.8,0.0085
749.6,0.0085
749.4,0.0086
749.2,0.0087
749.0,0.0082
748.8,0.0080
748.6,0.0084
748.4,0.0077
748.2,0.0079
748.0,0.0080
747.8,0.0096
747.6,0.0091
747.4,0.0088
747.2,0.0084
747.0,0.0084
746.8,0.0084
746.6,0.0086
746.4,0.0080
746.2,0.0079
746.0,0.0082
745.8,0.0083
745.6,0.0086
745.4,0.0085
745.2,0.0083
745.0,0.0085
744.8,0.0077
744.6,0.0084
744.4,0.0082
744.2,0.0086
744.0,0.0082
743.8,0.0081
743.6,0.0082
743.4,0.0080
743.2,0.0090
743.0,0.0083
742.8,0.0078
742.6,0.0084
742.4,0.0078
742.2,0.0093
742.0,0.0084
741.8,0.0082
741.6,0.0086
741.4,0.0088
741.2,0.0089
741.0,0.0087
740.8,0.0085
740.6,0.0085
740.4,0.0083
740.2,0.0089
740.0,0.0086
739.8,0.0090
739.6,0.0089
739.4,0.0082
739.2,0.0081
739.0,0.0086
738.8,0.0090
738.6,0.0083
738.4,0.0081
738.2,0.0087
738.0,0.0087
737.8,0.0083
737.6,0.0082
737.4,0.0082
737.2,0.0079
737.0,0.0083
736.8,0.0089
736.6,0.0091
736.4,0.0095
736.2,0.0088
736.0,0.0086
735.8,0.0086
735.6,0.0090
735.4,0.0086
735.2,0.0087
735.0,0.0091
734.8,0.0090
734.6,0.0089
734.4,0.0096
734.2,0.0093
734.0,0.0083
733.8,0.0083
733.6,0.0090
733.4,0.0092
733.2,0.0085
733.0,0.0087
732.8,0.0090
732.6,0.0090
732.4,0.0088
732.2,0.0090
732.0,0.0090
731.8,0.0094
731.6,0.0088
731.4,0.0088
731.2,0.0091
731.0,0.0084
730.8,0.0090
730.6,0.0086
730.4,0.0102
730.2,0.0087
730.0,0.0091
729.8,0.0091
729.6,0.0097
729.4,0.0086
729.2,0.0085
729.0,0.0092
728.8,0.0088
728.6,0.0094
728.4,0.0095
728.2,0.0087
728.0,0.0090
727.8,0.0087
727.6,0.0093
727.4,0.0089
727.2,0.0096
727.0,0.0086
726.8,0.0085
726.6,0.0092
726.4,0.0092
726.2,0.0088
726.0,0.0083
725.8,0.0097
725.6,0.0088
725.4,0.0089
725.2,0.0095
725.0,0.0093
724.8,0.0087
724.6,0.0088
724.4,0.0091
724.2,0.0094
724.0,0.0084
723.8,0.0086
723.6,0.0089
723.4,0.0086
723.2,0.0093
723.0,0.0101
722.8,0.0094
722.6,0.0094
722.4,0.0094
722.2,0.0090
722.0,0.0100
721.8,0.0094
721.6,0.0094
721.4,0.0089
721.2,0.0090
721.0,0.0096
720.8,0.0094
720.6,0.0094
720.4,0.0095
720.2,0.0091
720.0,0.0092
719.8,0.0097
719.6,0.0104
719.4,0.0093
719.2,0.0093
719.0,0.0103
718.8,0.0096
718.6,0.0095
718.4,0.0100
718.2,0.0098
718.0,0.0094
717.8,0.0100
717.6,0.0092
717.4,0.0094
717.2,0.0095
717.0,0.0098
716.8,0.0101
716.6,0.0094
716.4,0.0091
716.2,0.0094
716.0,0.0089
715.8,0.0093
715.6,0.0096
715.4,0.0099
715.2,0.0094
715.0,0.0098
714.8,0.0094
714.6,0.0102
714.4,0.0093
714.2,0.0094
714.0,0.0097
713.8,0.0092
713.6,0.0094
713.4,0.0095
713.2,0.0096
713.0,0.0095
712.8,0.0095
712.6,0.0094
712.4,0.0104
712.2,0.0098
712.0,0.0103
711.8,0.0097
711.6,0.0098
711.4,0.0096
711.2,0.0103
711.0,0.0099
710.8,0.0103
710.6,0.0099
710.4,0.0103
710.2,0.0099
710.0,0.0105
709.8,0.0103
709.6,0.0109
709.4,0.0101
709.2,0.0099
709.0,0.0104
708.8,0.0100
708.6,0.0101
708.4,0.0098
708.2,0.0101
708.0,0.0105
707.8,0.0100
707.6,0.0103
707.4,0.0102
707.2,0.0104
707.0,0.0105
706.8,0.0095
706.6,0.0103
706.4,0.0100
706.2,0.0107
706.0,0.0115
705.8,0.0096
705.6,0.0107
705.4,0.0104
705.2,0.0103
705.0,0.0109
704.8,0.0111
704.6,0.0101
704.4,0.0102
704.2,0.0106
704.0,0.0108
703.8,0.0110
703.6,0.0100
703.4,0.0105
703.2,0.0102
703.0,0.0104
702.8,0.0103
702.6,0.0102
702.4,0.0106
702.2,0.0108
702.0,0.0107
701.8,0.0106
701.6,0.0112
701.4,0.0107
701.2,0.0106
701.0,0.0104
700.8,0.0106
700.6,0.0107
700.4,0.0107
700.2,0.0111
700.0,0.0109
699.8,0.0109
699.6,0.0108
699.4,0.0111
699.2,0.0103
699.0,0.0113
698.8,0.0108
698.6,0.0112
698.4,0.0108
698.2,0.0110
698.0,0.0114
697.8,0.0108
697.6,0.0106
697.4,0.0114
697.2,0.0109
697.0,0.0115
696.8,0.0119
696.6,0.0112
696.4,0.0110
696.2,0.0108
696.0,0.0116
695.8,0.0108
695.6,0.0118
695.4,0.0109
695.2,0.0111
695.0,0.0111
694.8,0.0108
694.6,0.0111
694.4,0.0111
694.2,0.0109
694.0,0.0112
693.8,0.0111
693.6,0.0111
693.4,0.0118
693.2,0.0116
693.0,0.0109
692.8,0.0112
692.6,0.0111
692.4,0.0112
692.2,0.0116
692.0,0.0115
691.8,0.0112
691.6,0.0116
691.4,0.0117
691.2,0.0115
691.0,0.0114
690.8,0.0119
690.6,0.0116
690.4,0.0122
690.2,0.0121
690.0,0.0121
689.8,0.0122
689.6,0.0117
689.4,0.0127
689.2,0.0122
689.0,0.0117
688.8,0.0122
688.6,0.0119
688.4,0.0121
688.2,0.0124
688.0,0.0114
687.8,0.0117
687.6,0.0123
687.4,0.0123
687.2,0.0124
687.0,0.0115
686.8,0.0123
686.6,0.0119
686.4,0.0129
686.2,0.0123
686.0,0.0124
685.8,0.0118
685.6,0.0123
685.4,0.0122
685.2,0.0122
685.0,0.0122
684.8,0.0124
684.6,0.0124
684.4,0.0128
684.2,0.0135
684.0,0.0128
683.8,0.0123
683.6,0.0126
683.4,0.0123
683.2,0.0131
683.0,0.0136
682.8,0.0129
682.6,0.0125
682.4,0.0127
682.2,0.0127
682.0,0.0135
681.8,0.0126
681.6,0.0132
681.4,0.0124
681.2,0.0127
681.0,0.0131
680.8,0.0127
680.6,0.0127
680.4,0.0130
680.2,0.0133
680.0,0.0137
679.8,0.0132
679.6,0.0129
679.4,0.0134
679.2,0.0131
679.0,0.0133
678.8,0.0134
678.6,0.0137
678.4,0.0136
678.2,0.0129
678.0,0.0135
677.8,0.0137
677.6,0.0136
677.4,0.0140
677.2,0.0138
677.0,0.0137
676.8,0.0135
676.6,0.0137
676.4,0.0140
676.2,0.0140
676.0,0.0141
675.8,0.0143
675.6,0.0143
675.4,0.0141
675.2,0.0139
675.0,0.0141
674.8,0.0143
674.6,0.0140
674.4,0.0140
674.2,0.0141
674.0,0.0144
673.8,0.0138
673.6,0.0145
673.4,0.0143
673.2,0.0144
673.0,0.0142
672.8,0.0148
672.6,0.0145
672.4,0.0149
672.2,0.0147
672.0,0.0146
671.8,0.0144
671.6,0.0145
671.4,0.0149
671.2,0.0148
671.0,0.0145
670.8,0.0149
670.6,0.0147
670.4,0.0147
670.2,0.0153
670.0,0.0146
669.8,0.0148
669.6,0.0142
669.4,0.0149
669.2,0.0146
669.0,0.0154
668.8,0.0153
668.6,0.0149
668.4,0.0153
668.2,0.0146
668.0,0.0148
667.8,0.0147
667.6,0.0150
667.4,0.0153
667.2,0.0151
667.0,0.0149
666.8,0.0151
666.6,0.0147
666.4,0.0151
666.2,0.0148
666.0,0.0148
665.8,0.0149
665.6,0.0151
665.4,0.0150
665.2,0.0150
665.0,0.0151
664.8,0.0147
664.6,0.0145
664.4,0.0150
664.2,0.0150
664.0,0.0149
663.8,0.0149
663.6,0.0148
663.4,0.0151
663.2,0.0151
663.0,0.0151
662.8,0.0148
662.6,0.0145
662.4,0.0146
662.2,0.0148
662.0,0.0146
661.8,0.0150
661.6,0.0148
661.4,0.0149
661.2,0.0147
661.0,0.0154
660.8,0.0143
660.6,0.0148
660.4,0.0146
660.2,0.0147
660.0,0.0150
659.8,0.0144
659.6,0.0147
659.4,0.0142
659.2,0.0147
659.0,0.0144
658.8,0.0151
658.6,0.0143
658.4,0.0144
658.2,0.0146
658.0,0.0140
657.8,0.0142
657.6,0.0141
657.4,0.0142
657.2,0.0143
657.0,0.0143
656.8,0.0140
656.6,0.0141
656.4,0.0144
656.2,0.0144
656.0,0.0143
655.8,0.0139
655.6,0.0141
655.4,0.0141
655.2,0.0143
655.0,0.0143
654.8,0.0144
654.6,0.0136
654.4,0.0141
654.2,0.0138
654.0,0.0139
653.8,0.0139
653.6,0.0136
653.4,0.0141
653.2,0.0141
653.0,0.0140
652.8,0.0131
652.6,0.0134
652.4,0.0134
652.2,0.0139
652.0,0.0135
651.8,0.0135
651.6,0.0134
651.4,0.0138
651.2,0.0140
651.0,0.0138
650.8,0.0139
650.6,0.0136
650.4,0.0140
650.2,0.0136
650.0,0.0139
649.8,0.0131
649.6,0.0132
649.4,0.0133
649.2,0.0136
649.0,0.0132
648.8,0.0132
648.6,0.0131
648.4,0.0135
648.2,0.0134
648.0,0.0137
647.8,0.0136
647.6,0.0134
647.4,0.0136
647.2,0.0137
647.0,0.0138
646.8,0.0135
646.6,0.0133
646.4,0.0140
646.2,0.0134
646.0,0.0133
645.8,0.0136
645.6,0.0134
645.4,0.0135
645.2,0.0143
645.0,0.0136
644.8,0.0141
644.6,0.0139
644.4,0.0135
644.2,0.0140
644.0,0.0138
643.8,0.0134
643.6,0.0137
643.4,0.0134
643.2,0.0135
643.0,0.0135
642.8,0.0138
642.6,0.0131
642.4,0.0139
642.2,0.0138
642.0,0.0134
641.8,0.0143
641.6,0.0140
641.4,0.0136
641.2,0.0136
641.0,0.0138
640.8,0.0139
640.6,0.0142
640.4,0.0141
640.2,0.0139
640.0,0.0139
639.8,0.0139
639.6,0.0136
639.4,0.0143
639.2,0.0135
639.0,0.0140
638.8,0.0139
638.6,0.0141
638.4,0.0141
638.2,0.0135
638.0,0.0145
637.8,0.0139
637.6,0.0138
637.4,0.0141
637.2,0.0141
637.0,0.0140
636.8,0.0145
636.6,0.0145
636.4,0.0135
636.2,0.0142
636.0,0.0140
635.8,0.0144
635.6,0.0137
635.4,0.0143
635.2,0.0145
635.0,0.0145
634.8,0.0139
634.6,0.0146
634.4,0.0142
634.2,0.0145
634.0,0.0143
633.8,0.0142
633.6,0.0143
633.4,0.0139
633.2,0.0140
633.0,0.0144
632.8,0.0143
632.6,0.0143
632.4,0.0148
632.2,0.0140
632.0,0.0142
631.8,0.0146
631.6,0.0143
631.4,0.0146
631.2,0.0146
631.0,0.0146
630.8,0.0145
630.6,0.0147
630.4,0.0147
630.2,0.0145
630.0,0.0149
629.8,0.0144
629.6,0.0145
629.4,0.0147
629.2,0.0149
629.0,0.0148
628.8,0.0148
628.6,0.0146
628.4,0.0152
628.2,0.0149
628.0,0.0151
627.8,0.0152
627.6,0.0149
627.4,0.0152
627.2,0.0158
627.0,0.0151
626.8,0.0151
626.6,0.0152
626.4,0.0155
626.2,0.0151
626.0,0.0151
625.8,0.0155
625.6,0.0150
625.4,0.0153
625.2,0.0154
625.0,0.0151
624.8,0.0152
624.6,0.0152
624.4,0.0152
624.2,0.0153
624.0,0.0154
623.8,0.0157
623.6,0.0152
623.4,0.0155
623.2,0.0153
623.0,0.0155
622.8,0.0155
622.6,0.0150
622.4,0.0154
622.2,0.0151
622.0,0.0155
621.8,0.0157
621.6,0.0154
621.4,0.0155
621.2,0.0154
621.0,0.0155
620.8,0.0158
620.6,0.0154
620.4,0.0157
620.2,0.0156
620.0,0.0158
619.8,0.0156
619.6,0.0155
619.4,0.0158
619.2,0.0157
619.0,0.0156
618.8,0.0153
618.6,0.0154
618.4,0.0153
618.2,0.0154
618.0,0.0156
617.8,0.0158
617.6,0.0159
617.4,0.0156
617.2,0.0156
617.0,0.0163
616.8,0.0153
616.6,0.0157
616.4,0.0157
616.2,0.0157
616.0,0.0153
615.8,0.0156
615.6,0.0158
615.4,0.0157
615.2,0.0153
615.0,0.0156
614.8,0.0156
614.6,0.0156
614.4,0.0157
614.2,0.0154
614.0,0.0154
613.8,0.0154
613.6,0.0153
613.4,0.0151
613.2,0.0155
613.0,0.0145
612.8,0.0151
612.6,0.0148
612.4,0.0150
612.2,0.0156
612.0,0.0150
611.8,0.0154
611.6,0.0150
611.4,0.0154
611.2,0.0150
611.0,0.0151
610.8,0.0153
610.6,0.0154
610.4,0.0147
610.2,0.0151
610.0,0.0148
609.8,0.0148
609.6,0.0148
609.4,0.0148
609.2,0.0149
609.0,0.0149
608.8,0.0149
608.6,0.0150
608.4,0.0144
608.2,0.0147
608.0,0.0151
607.8,0.0144
607.6,0.0144
607.4,0.0145
607.2,0.0141
607.0,0.0143
606.8,0.0141
606.6,0.0143
606.4,0.0142
606.2,0.0144
606.0,0.0145
605.8,0.0139
605.6,0.0142
605.4,0.0143
605.2,0.0141
605.0,0.0143
604.8,0.0140
604.6,0.0140
604.4,0.0139
604.2,0.0138
604.0,0.0137
603.8,0.0143
603.6,0.0140
603.4,0.0140
603.2,0.0136
603.0,0.0137
602.8,0.0135
602.6,0.0138
602.4,0.0136
602.2,0.0137
602.0,0.0134
601.8,0.0137
601.6,0.0137
601.4,0.0136
601.2,0.0130
601.0,0.0132
600.8,0.0131
600.6,0.0133
600.4,0.0131
600.2,0.0132
600.0,0.0132
599.8,0.0132
599.6,0.0132
599.4,0.0129
599.2,0.0134
599.0,0.0128
598.8,0.0130
598.6,0.0130
598.4,0.0132
598.2,0.0128
598.0,0.0125
597.8,0.0129
597.6,0.0128
597.4,0.0126
597.2,0.0129
597.0,0.0128
596.8,0.0124
596.6,0.0126
596.4,0.0124
596.2,0.0125
596.0,0.0122
595.8,0.0124
595.6,0.0127
595.4,0.0130
595.2,0.0125
595.0,0.0129
594.8,0.0127
594.6,0.0126
594.4,0.0126
594.2,0.0122
594.0,0.0120
593.8,0.0126
593.6,0.0121
593.4,0.0121
593.2,0.0121
593.0,0.0120
592.8,0.0124
592.6,0.0122
592.4,0.0124
592.2,0.0120
592.0,0.0122
591.8,0.0119
591.6,0.0120
591.4,0.0120
591.2,0.0122
591.0,0.0115
590.8,0.0119
590.6,0.0121
590.4,0.0119
590.2,0.0121
590.0,0.0122
589.8,0.0119
589.6,0.0118
589.4,0.0119
589.2,0.0116
589.0,0.0114
588.8,0.0119
588.6,0.0121
588.4,0.0119
588.2,0.0116
588.0,0.0118
587.8,0.0114
587.6,0.0117
587.4,0.0115
587.2,0.0116
587.0,0.0116
586.8,0.0116
586.6,0.0117
586.4,0.0117
586.2,0.0112
586.0,0.0114
585.8,0.0111
585.6,0.0113
585.4,0.0114
585.2,0.0113
585.0,0.0112
584.8,0.0116
584.6,0.0110
584.4,0.0114
584.2,0.0112
584.0,0.0109
583.8,0.0112
583.6,0.0113
583.4,0.0114
583.2,0.0110
583.0,0.0113
582.8,0.0110
582.6,0.0113
582.4,0.0107
582.2,0.0109
582.0,0.0109
581.8,0.0105
581.6,0.0106
581.4,0.0106
581.2,0.0106
581.0,0.0108
580.8,0.0109
580.6,0.0108
580.4,0.0108
580.2,0.0106
580.0,0.0110