File: Figure1/UV-vis/Sample346.Sample.csv
Created as New Dataset,
nm,A
800.0,0.0070
799.8,0.0066
799.6,0.0079
799.4,0.0070
799.2,0.0073
799.0,0.0082
798.8,0.0070
798.6,0.0071
798.4,0.0075
798.2,0.0074
798.0,0.0070
797.8,0.0073
797.6,0.0065
797.4,0.0070
797.2,0.0077
797.0,0.0069
796.8,0.0070
796.6,0.0070
796.4,0.0075
796.2,0.0055
796.0,0.0072
795.8,0.0070
795.6,0.0077
795.4,0.0061
795.2,0.0072
795.0,0.0077
794.8,0.0074
794.6,0.0073
794.4,0.0069
794.2,0.0066
794.0,0.0072
793.8,0.0076
793.6,0.0065
793.4,0.0057
793.2,0.0076
793.0,0.0066
792.8,0.0076
792.6,0.0075
792.4,0.0065
792.2,0.0074
792.0,0.0072
791.8,0.0065
791.6,0.0063
791.4,0.0063
791.2,0.0069
791.0,0.0070
790.8,0.0068
790.6,0.0074
790.4,0.0073
790.2,0.0081
790.0,0.0075
789.8,0.0062
789.6,0.0072
789.4,0.0071
789.2,0.0066
789.0,0.0080
788.8,0.0066
788.6,0.0074
788.4,0.0063
788.2,0.0064
788.0,0.0065
787.8,0.0073
787.6,0.0072
787.4,0.0074
787.2,0.0068
787.0,0.0075
786.8,0.0073
786.6,0.0068
786.4,0.0073
786.2,0.0066
786.0,0.0064
785.8,0.0073
785.6,0.0067
785.4,0.0064
785.2,0.0070
785.0,0.0064
784.8,0.0077
784.6,0.0066
784.4,0.0076
784.2,0.0071
784.0,0.0077
783.8,0.0072
783.6,0.0071
783.4,0.0073
783.2,0.0067
783.0,0.0077
782.8,0.0069
782.6,0.0070
782.4,0.0079
782.2,0.0074
782.0,0.0077
781.8,0.0078
781.6,0.0070
781.4,0.0071
781.2,0.0065
781.0,0.0067
780.8,0.0063
780.6,0.0074
780.4,0.0067
780.2,0.0067
780.0,0.0073
779.8,0.0075
779.6,0.0065
779.4,0.0072
779.2,0.0077
779.0,0.0078
778.8,0.0069
778.6,0.0068
778.4,0.0070
778.2,0.0078
778.0,0.0074
777.8,0.0070
777.6,0.0075
777.4,0.0077
777.2,0.0076
777.0,0.0066
776.8,0.0075
776.6,0.0077
776.4,0.0074
776.2,0.0068
776.0,0.0075
775.8,0.0092
775.6,0.0059
775.4,0.0072
775.2,0.0072
775.0,0.0069
774.8,0.0069
774.6,0.0080
774.4,0.0074
774.2,0.0070
774.0,0.0075
773.8,0.0068
773.6,0.0072
773.4,0.0064
773.2,0.0084
773.0,0.0079
772.8,0.0074
772.6,0.0076
772.4,0.0075
772.2,0.0078
772.0,0.0078
771.8,0.0078
771.6,0.0072
771.4,0.0068
771.2,0.0071
771.0,0.0083
770.8,0.0072
770.6,0.0079
770.4,0.0064
770.2,0.0075
770.0,0.0080
769.8,0.0082
769.6,0.0067
769.4,0.0079
769.2,0.0079
769.0,0.0079
768.8,0.0077
768.6,0.0070
768.4,0.0069
768.2,0.0077
768.0,0.0076
767.8,0.0077
767.6,0.0082
767.4,0.0088
767.2,0.0077
767.0,0.0077
766.8,0.0077
766.6,0.0076
766.4,0.0078
766.2,0.0079
766.0,0.0067
765.8,0.0079
765.6,0.0077
765.4,0.0083
765.2,0.0076
765.0,0.0074
764.8,0.0079
764.6,0.0078
764.4,0.0077
764.2,0.0061
764.0,0.0072
763.8,0.0075
763.6,0.0068
763.4,0.0080
763.2,0.0077
763.0,0.0081
762.8,0.0074
762.6,0.0078
762.4,0.0076
762.2,0.0079
762.0,0.0086
761.8,0.0083
761.6,0.0077
761.4,0.0080
761.2,0.0071
761.0,0.0082
760.8,0.0072
760.6,0.0072
760.4,0.0075
760.2,0.0074
760.0,0.0080
759.8,0.0076
759.6,0.0082
759.4,0.0073
759.2,0.0080
759.0,0.0069
758.8,0.0074
758.6,0.0080
758.4,0.0078
758.2,0.0082
758.0,0.0082
757.8,0.0087
757.6,0.0079
757.4,0.0082
757.2,0.0090
757.0,0.0090
756.8,0.0076
756.6,0.0079
756.4,0.0074
756.2,0.0079
756.0,0.0074
755.8,0.0080
755.6,0.0085
755.4,0.0073
755.2,0.0083
755.0,0.0078
754.8,0.0080
754.6,0.0087
754.4,0.0079
754.2,0.0082
754.0,0.0081
753.8,0.0075
753.6,0.0081
753.4,0.0085
753.2,0.0085
753.0,0.0083
752.8,0.0089
752.6,0.0079
752.4,0.0088
752.2,0.0080
752.0,0.0074
751.8,0.0074
751.6,0.0081
751.4,0.0080
751.2,0.0078
751.0,0.0083
750.8,0.0077
750.6,0.0081
750.4,0.0088
750.2,0.0075
750.0,0.0083
749.8,0.0086
749.6,0.0086
749.4,0.0079
749.2,0.0087
749.0,0.0086
748.8,0.0077
748.6,0.0079
748.4,0.0082
748.2,0.0074
748.0,0.0074
747.8,0.0090
747.6,0.0091
747.4,0.0084
747.2,0.0079
747.0,0.0079
746.8,0.0079
746.6,0.0077
746.4,0.0079
746.2,0.0075
746.0,0.0077
745.8,0.0078
745.6,0.0084
745.4,0.0082
745.2,0.0085
745.0,0.0088
744.8,0.0078
744.6,0.0083
744.4,0.0083
744.2,0.0079
744.0,0.0084
743.8,0.0079
743.6,0.0085
743.4,0.0077
743.2,0.0085
743.0,0.0081
742.8,0.0080
742.6,0.0079
742.4,0.0084
742.2,0.0085
742.0,0.0080
741.8,0.0083
741.6,0.0086
741.4,0.0085
741.2,0.0083
741.0,0.0080
740.8,0.0085
740.6,0.0082
740.4,0.0086
740.2,0.0088
740.0,0.0078
739.8,0.0083
739.6,0.0088
739.4,0.0083
739.2,0.0087
739.0,0.0080
738.8,0.0087
738.6,0.0085
738.4,0.0086
738.2,0.0085
738.0,0.0091
737.8,0.0081
737.6,0.0087
737.4,0.0083
737.2,0.0085
737.0,0.0085
736.8,0.0092
736.6,0.0080
736.4,0.0091
736.2,0.0085
736.0,0.0085
735.8,0.0084
735.6,0.0089
735.4,0.0082
735.2,0.0089
735.0,0.0086
734.8,0.0088
734.6,0.0086
734.4,0.0087
734.2,0.0093
734.0,0.0084
733.8,0.0088
733.6,0.0083
733.4,0.0095
733.2,0.0080
733.0,0.0082
732.8,0.0083
732.6,0.0089
732.4,0.0083
732.2,0.0091
732.0,0.0085
731.8,0.0090
731.6,0.0091
731.4,0.0085
731.2,0.0094
731.0,0.0076
730.8,0.0092
730.6,0.0079
730.4,0.0095
730.2,0.0093
730.0,0.0087
729.8,0.0085
729.6,0.0087
729.4,0.0089
729.2,0.0081
729.0,0.0088
728.8,0.0090
728.6,0.0095
728.4,0.0098
728.2,0.0087
728.0,0.0095
727.8,0.0085
727.6,0.0093
727.4,0.0091
727.2,0.0087
727.0,0.0091
726.8,0.0090
726.6,0.0093
726.4,0.0094
726.2,0.0091
726.0,0.0089
725.8,0.0097
725.6,0.0093
725.4,0.0091
725.2,0.0094
725.0,0.0096
724.8,0.0085
724.6,0.0085
724.4,0.0089
724.2,0.0092
724.0,0.0083
723.8,0.0087
723.6,0.0086
723.4,0.0087
723.2,0.0090
723.0,0.0093
722.8,0.0090
722.6,0.0090
722.4,0.0088
722.2,0.0092
722.0,0.0095
721.8,0.0095
721.6,0.0095
721.4,0.0092
721.2,0.0093
721.0,0.0095
720.8,0.0096
720.6,0.0087
720.4,0.0092
720.2,0.0089
720.0,0.0094
719.8,0.0089
719.6,0.0097
719.4,0.0091
719.2,0.0085
719.0,0.0092
718.8,0.0090
718.6,0.0096
718.4,0.0095
718.2,0.0088
718.0,0.0094
717.8,0.0096
717.6,0.0089
717.4,0.0090
717.2,0.0090
717.0,0.0095
716.8,0.0093
716.6,0.0098
716.4,0.0095
716.2,0.0090
716.0,0.0090
715.8,0.0092
715.6,0.0091
715.4,0.0098
715.2,0.0093
715.0,0.0096
714.8,0.0096
714.6,0.0096
714.4,0.0090
714.2,0.0093
714.0,0.0094
713.8,0.0092
713.6,0.0091
713.4,0.0094
713.2,0.0095
713.0,0.0094
712.8,0.0098
712.6,0.0095
712.4,0.0103
712.2,0.0097
712.0,0.0100
711.8,0.0097
711.6,0.0093
711.4,0.0099
711.2,0.0099
711.0,0.0095
710.8,0.0097
710.6,0.0102
710.4,0.0099
710.2,0.0102
710.0,0.0098
709.8,0.0099
709.6,0.0098
709.4,0.0099
709.2,0.0100
709.0,0.0106
708.8,0.0095
708.6,0.0101
708.4,0.0096
708.2,0.0093
708.0,0.0102
707.8,0.0092
707.6,0.0102
707.4,0.0098
707.2,0.0096
707.0,0.0101
706.8,0.0100
706.6,0.0094
706.4,0.0099
706.2,0.0105
706.0,0.0109
705.8,0.0096
705.6,0.0106
705.4,0.0100
705.2,0.0102
705.0,0.0104
704.8,0.0108
704.6,0.0102
704.4,0.0104
704.2,0.0103
704.0,0.0101
703.8,0.0106
703.6,0.0099
703.4,0.0102
703.2,0.0104
703.0,0.0107
702.8,0.0103
702.6,0.0100
702.4,0.0108
702.2,0.0099
702.0,0.0100
701.8,0.0104
701.6,0.0111
701.4,0.0106
701.2,0.0102
701.0,0.0101
700.8,0.0101
700.6,0.0108
700.4,0.0104
700.2,0.0107
700.0,0.0106
699.8,0.0109
699.6,0.0102
699.4,0.0105
699.2,0.0103
699.0,0.0104
698.8,0.0107
698.6,0.0109
698.4,0.0106
698.2,0.0107
698.0,0.0104
697.8,0.0107
697.6,0.0107
697.4,0.0112
697.2,0.0112
697.0,0.0110
696.8,0.0115
696.6,0.0109
696.4,0.0106
696.2,0.0107
696.0,0.0112
695.8,0.0106
695.6,0.0116
695.4,0.0112
695.2,0.0112
695.0,0.0111
694.8,0.0109
694.6,0.0111
694.4,0.0110
694.2,0.0109
694.0,0.0108
693.8,0.0109
693.6,0.0110
693.4,0.0114
693.2,0.0115
693.0,0.0114
692.8,0.0113
692.6,0.0105
692.4,0.0113
692.2,0.0110
692.0,0.0119
691.8,0.0116
691.6,0.0116
691.4,0.0113
691.2,0.0113
691.0,0.0115
690.8,0.0120
690.6,0.0116
690.4,0.0117
690.2,0.0122
690.0,0.0116
689.8,0.0114
689.6,0.0116
689.4,0.0120
689.2,0.0117
689.0,0.0111
688.8,0.0118
688.6,0.0117
688.4,0.0116
688.2,0.0122
688.0,0.0113
687.8,0.0116
687.6,0.0125
687.4,0.0118
687.2,0.0119
687.0,0.0115
686.8,0.0117
686.6,0.0115
686.4,0.0124
686.2,0.0128
686.0,0.0122
685.8,0.0118
685.6,0.0120
685.4,0.0124
685.2,0.0122
685.0,0.0121
684.8,0.0122
684.6,0.0124
684.4,0.0123
684.2,0.0129
684.0,0.0121
683.8,0.0124
683.6,0.0125
683.4,0.0122
683.2,0.0125
683.0,0.0135
682.8,0.0125
682.6,0.0123
682.4,0.0129
682.2,0.0126
682.0,0.0131
681.8,0.0130
681.6,0.0134
681.4,0.0128
681.2,0.0125
681.0,0.0126
680.8,0.0129
680.6,0.0125
680.4,0.0128
680.2,0.0129
680.0,0.0124
679.8,0.0131
679.6,0.0128
679.4,0.0131
679.2,0.0130
679.0,0.0135
678.8,0.0133
678.6,0.0131
678.4,0.0134
678.2,0.0130
678.0,0.0135
677.8,0.0135
677.6,0.0135
677.4,0.0135
677.2,0.0135
677.0,0.0133
676.8,0.0137
676.6,0.0136
676.4,0.0131
676.2,0.0136
676.0,0.0140
675.8,0.0139
675.6,0.0141
675.4,0.0134
675.2,0.0140
675.0,0.0137
674.8,0.0143
674.6,0.0140
674.4,0.0144
674.2,0.0139
674.0,0.0142
673.8,0.0139
673.6,0.0139
673.4,0.0142
673.2,0.0139
673.0,0.0142
672.8,0.0142
672.6,0.0140
672.4,0.0143
672.2,0.0144
672.0,0.0144
671.8,0.0144
671.6,0.0144
671.4,0.0145
671.2,0.0149
671.0,0.0149
670.8,0.0143
670.6,0.0146
670.4,0.0144
670.2,0.0147
670.0,0.0147
669.8,0.0149
669.6,0.0143
669.4,0.0148
669.2,0.0150
669.0,0.0151
668.8,0.0152
668.6,0.0149
668.4,0.0148
668.2,0.0148
668.0,0.0151
667.8,0.0149
667.6,0.0149
667.4,0.0152
667.2,0.0154
667.0,0.0148
666.8,0.0149
666.6,0.0150
666.4,0.0147
666.2,0.0151
666.0,0.0147
665.8,0.0151
665.6,0.0153
665.4,0.0150
665.2,0.0147
665.0,0.0150
664.8,0.0147
664.6,0.0146
664.4,0.0142
664.2,0.0151
664.0,0.0151
663.8,0.0141
663.6,0.0150
663.4,0.0149
663.2,0.0145
663.0,0.0147
662.8,0.0148
662.6,0.0141
662.4,0.0143
662.2,0.0148
662.0,0.0144
661.8,0.0145
661.6,0.0147
661.4,0.0143
661.2,0.0146
661.0,0.0153
660.8,0.0137
660.6,0.0146
660.4,0.0144
660.2,0.0145
660.0,0.0146
659.8,0.0147
659.6,0.0146
659.4,0.0140
659.2,0.0148
659.0,0.0143
658.8,0.0142
658.6,0.0140
658.4,0.0143
658.2,0.0144
658.0,0.0141
657.8,0.0142
657.6,0.0141
657.4,0.0140
657.2,0.0144
657.0,0.0142
656.8,0.0141
656.6,0.0139
656.4,0.0141
656.2,0.0141
656.0,0.0137
655.8,0.0139
655.6,0.0139
655.4,0.0140
655.2,0.0137
655.0,0.0137
654.8,0.0138
654.6,0.0136
654.4,0.0140
654.2,0.0136
654.0,0.0139
653.8,0.0137
653.6,0.0131
653.4,0.0136
653.2,0.0137
653.0,0.0135
652.8,0.0137
652.6,0.0134
652.4,0.0133
652.2,0.0136
652.0,0.0134
651.8,0.0132
651.6,0.0134
651.4,0.0137
651.2,0.0135
651.0,0.0138
650.8,0.0130
650.6,0.0135
650.4,0.0135
650.2,0.0135
650.0,0.0136
649.8,0.0135
649.6,0.0136
649.4,0.0133
649.2,0.0132
649.0,0.0128
648.8,0.0131
648.6,0.0132
648.4,0.0132
648.2,0.0131
648.0,0.0135
647.8,0.0134
647.6,0.0133
647.4,0.0130
647.2,0.0132
647.0,0.0131
646.8,0.0134
646.6,0.0133
646.4,0.0135
646.2,0.0132
646.0,0.0134
645.8,0.0131
645.6,0.0130
645.4,0.0132
645.2,0.0134
645.0,0.0134
644.8,0.0136
644.6,0.0136
644.4,0.0133
644.2,0.0136
644.0,0.0134
643.8,0.0132
643.6,0.0133
643.4,0.0136
643.2,0.0131
643.0,0.0132
642.8,0.0132
642.6,0.0130
642.4,0.0137
642.2,0.0132
642.0,0.0133
641.8,0.0140
641.6,0.0135
641.4,0.0134
641.2,0.0137
641.0,0.0135
640.8,0.0141
640.6,0.0137
640.4,0.0137
640.2,0.0133
640.0,0.0137
639.8,0.0139
639.6,0.0133
639.4,0.0140
639.2,0.0133
639.0,0.0132
638.8,0.0134
638.6,0.0140
638.4,0.0140
638.2,0.0138
638.0,0.0141
637.8,0.0137
637.6,0.0134
637.4,0.0142
637.2,0.0141
637.0,0.0137
636.8,0.0144
636.6,0.0142
636.4,0.0136
636.2,0.0143
636.0,0.0137
635.8,0.0137
635.6,0.0135
635.4,0.0141
635.2,0.0141
635.0,0.0141
634.8,0.0137
634.6,0.0143
634.4,0.0139
634.2,0.0145
634.0,0.0140
633.8,0.0142
633.6,0.0142
633.4,0.0145
633.2,0.0144
633.0,0.0148
632.8,0.0145
632.6,0.0141
632.4,0.0145
632.2,0.0139
632.0,0.0142
631.8,0.0144
631.6,0.0145
631.4,0.0148
631.2,0.0142
631.0,0.0145
630.8,0.0144
630.6,0.0147
630.4,0.0143
630.2,0.0142
630.0,0.0145
629.8,0.0141
629.6,0.0146
629.4,0.0147
629.2,0.0146
629.0,0.0147
628.8,0.0146
628.6,0.0149
628.4,0.0152
628.2,0.0149
628.0,0.0151
627.8,0.0150
627.6,0.0146
627.4,0.0149
627.2,0.0152
627.0,0.0145
626.8,0.0144
626.6,0.0144
626.4,0.0149
626.2,0.0148
626.0,0.0148
625.8,0.0148
625.6,0.0148
625.4,0.0148
625.2,0.0149
625.0,0.0148
624.8,0.0153
624.6,0.0153
624.4,0.0151
624.2,0.0151
624.0,0.0151
623.8,0.0156
623.6,0.0152
623.4,0.0153
623.2,0.0152
623.0,0.0155
622.8,0.0153
622.6,0.0149
622.4,0.0151
622.2,0.0152
622.0,0.0154
621.8,0.0154
621.6,0.0151
621.4,0.0152
621.2,0.0154
621.0,0.0156
620.8,0.0158
620.6,0.0152
620.4,0.0154
620.2,0.0152
620.0,0.0154
619.8,0.0151
619.6,0.0152
619.4,0.0155
619.2,0.0155
619.0,0.0154
618.8,0.0151
618.6,0.0153
618.4,0.0155
618.2,0.0152
618.0,0.0152
617.8,0.0151
617.6,0.0156
617.4,0.0157
617.2,0.0152
617.0,0.0157
616.8,0.0153
616.6,0.0154
616.4,0.0152
616.2,0.0151
616.0,0.0153
615.8,0.0152
615.6,0.0153
615.4,0.0155
615.2,0.0150
615.0,0.0154
614.8,0.0153
614.6,0.0151
614.4,0.0154
614.2,0.0153
614.0,0.0154
613.8,0.0148
613.6,0.0150
613.4,0.0150
613.2,0.0154
613.0,0.0147
612.8,0.0150
612.6,0.0152
612.4,0.0147
612.2,0.0152
612.0,0.0151
611.8,0.0151
611.6,0.0146
611.4,0.0151
611.2,0.0145
611.0,0.0149
610.8,0.0147
610.6,0.0149
610.4,0.0144
610.2,0.0150
610.0,0.0152
609.8,0.0143
609.6,0.0148
609.4,0.0147
609.2,0.0148
609.0,0.0149
608.8,0.0147
608.6,0.0144
608.4,0.0146
608.2,0.0149
608.0,0.0149
607.8,0.0142
607.6,0.0143
607.4,0.0142
607.2,0.0139
607.0,0.0139
606.8,0.0139
606.6,0.0140
606.4,0.0142
606.2,0.0143
606.0,0.0143
605.8,0.0139
605.6,0.0140
605.4,0.0141
605.2,0.0142
605.0,0.0142
604.8,0.0139
604.6,0.0140
604.4,0.0135
604.2,0.0138
604.0,0.0137
603.8,0.0138
603.6,0.0137
603.4,0.0133
603.2,0.0134
603.0,0.0134
602.8,0.0134
602.6,0.0135
602.4,0.0136
602.2,0.0133
602.0,0.0134
601.8,0.0134
601.6,0.0133
601.4,0.0132
601.2,0.0128
601.0,0.0130
600.8,0.0131
600.6,0.0129
600.4,0.0129
600.2,0.0129
600.0,0.0130
599.8,0.0129
599.6,0.0126
599.4,0.0127
599.2,0.0129
599.0,0.0126
598.8,0.0129
598.6,0.0130
598.4,0.0129
598.2,0.0127
598.0,0.0124
597.8,0.0126
597.6,0.0127
597.4,0.0126
597.2,0.0123
597.0,0.0126
596.8,0.0121
596.6,0.0123
596.4,0.0120
596.2,0.0123
596.0,0.0124
595.8,0.0123
595.6,0.0123
595.4,0.0125
595.2,0.0123
595.0,0.0120
594.8,0.0123
594.6,0.0117
594.4,0.0123
594.2,0.0122
594.0,0.0117
593.8,0.0122
593.6,0.0118
593.4,0.0119
593.2,0.0115
593.0,0.0116
592.8,0.0120
592.6,0.0118
592.4,0.0119
592.2,0.0119
592.0,0.0119
591.8,0.0114
591.6,0.0116
591.4,0.0118
591.2,0.0117
591.0,0.0114
590.8,0.0117
590.6,0.0119
590.4,0.0115
590.2,0.0117
590.0,0.0116
589.8,0.0116
589.6,0.0116
589.4,0.0117
589.2,0.0113
589.0,0.0115
588.8,0.0113
588.6,0.0112
588.4,0.0116
588.2,0.0111
588.0,0.0114
587.8,0.0113
587.6,0.0114
587.4,0.0107
587.2,0.0112
587.0,0.0112
586.8,0.0115
586.6,0.0112
586.4,0.0114
586.2,0.0111
586.0,0.0108
585.8,0.0109
585.6,0.0110
585.4,0.0105
585.2,0.0110
585.0,0.0114
584.8,0.0112
584.6,0.0113
584.4,0.0114
584.2,0.0106
584.0,0.0107
583.8,0.0110
583.6,0.0111
583.4,0.0111
583.2,0.0107
583.0,0.0106
582.8,0.0104
582.6,0.0107
582.4,0.0105
582.2,0.0102
582.0,0.0107
581.8,0.0103
581.6,0.0105
581.4,0.0105
581.2,0.0103
581.0,0.0108
580.8,0.0107
580.6,0.0107
580.4,0.0103
580.2,0.0106
580.0,0.0103