File: Figure1/UV-vis/Sample343.Sample.csv
Created as New Dataset,
nm,A
800.0,-0.0146
799.8,-0.0138
799.6,-0.0147
799.4,-0.0151
799.2,-0.0141
799.0,-0.0139
798.8,-0.0152
798.6,-0.0157
798.4,-0.0149
798.2,-0.0145
798.0,-0.0151
797.8,-0.0138
797.6,-0.0157
797.4,-0.0159
797.2,-0.0145
797.0,-0.0156
796.8,-0.0158
796.6,-0.0153
796.4,-0.0152
796.2,-0.0163
796.0,-0.0158
795.8,-0.0161
795.6,-0.0163
795.4,-0.0174
795.2,-0.0163
795.0,-0.0168
794.8,-0.0171
794.6,-0.0162
794.4,-0.0164
794.2,-0.0162
794.0,-0.0170
793.8,-0.0164
793.6,-0.0170
793.4,-0.0185
793.2,-0.0162
793.0,-0.0174
792.8,-0.0172
792.6,-0.0177
792.4,-0.0182
792.2,-0.0173
792.0,-0.0175
791.8,-0.0181
791.6,-0.0193
791.4,-0.0190
791.2,-0.0187
791.0,-0.0186
790.8,-0.0180
790.6,-0.0190
790.4,-0.0190
790.2,-0.0184
790.0,-0.0199
789.8,-0.0194
789.6,-0.0200
789.4,-0.0191
789.2,-0.0198
789.0,-0.0188
788.8,-0.0201
788.6,-0.0200
788.4,-0.0200
788.2,-0.0204
788.0,-0.0197
787.8,-0.0206
787.6,-0.0203
787.4,-0.0199
787.2,-0.0198
787.0,-0.0202
786.8,-0.0207
786.6,-0.0211
786.4,-0.0211
786.2,-0.0208
786.0,-0.0212
785.8,-0.0209
785.6,-0.0214
785.4,-0.0212
785.2,-0.0211
785.0,-0.0217
784.8,-0.0211
784.6,-0.0212
784.4,-0.0201
784.2,-0.0213
784.0,-0.0208
783.8,-0.0209
783.6,-0.0218
783.4,-0.0213
783.2,-0.0208
783.0,-0.0205
782.8,-0.0218
782.6,-0.0215
782.4,-0.0210
782.2,-0.0208
782.0,-0.0205
781.8,-0.0200
781.6,-0.0221
781.4,-0.0215
781.2,-0.0221
781.0,-0.0217
780.8,-0.0217
780.6,-0.0206
780.4,-0.0214
780.2,-0.0218
780.0,-0.0205
779.8,-0.0206
779.6,-0.0213
779.4,-0.0200
779.2,-0.0203
779.0,-0.0214
778.8,-0.0212
778.6,-0.0218
778.4,-0.0208
778.2,-0.0210
778.0,-0.0210
777.8,-0.0208
777.6,-0.0211
777.4,-0.0203
777.2,-0.0209
777.0,-0.0208
776.8,-0.0202
776.6,-0.0195
776.4,-0.0210
776.2,-0.0212
776.0,-0.0202
775.8,-0.0202
775.6,-0.0217
775.4,-0.0213
775.2,-0.0212
775.0,-0.0211
774.8,-0.0211
774.6,-0.0199
774.4,-0.0218
774.2,-0.0207
774.0,-0.0205
773.8,-0.0208
773.6,-0.0209
773.4,-0.0212
773.2,-0.0199
773.0,-0.0207
772.8,-0.0209
772.6,-0.0211
772.4,-0.0203
772.2,-0.0204
772.0,-0.0205
771.8,-0.0199
771.6,-0.0209
771.4,-0.0204
771.2,-0.0208
771.0,-0.0205
770.8,-0.0204
770.6,-0.0202
770.4,-0.0201
770.2,-0.0198
770.0,-0.0184
769.8,-0.0197
769.6,-0.0198
769.4,-0.0192
769.2,-0.0188
769.0,-0.0185
768.8,-0.0186
768.6,-0.0192
768.4,-0.0194
768.2,-0.0189
768.0,-0.0180
767.8,-0.0189
767.6,-0.0177
767.4,-0.0170
767.2,-0.0177
767.0,-0.0178
766.8,-0.0166
766.6,-0.0161
766.4,-0.0163
766.2,-0.0166
766.0,-0.0166
765.8,-0.0160
765.6,-0.0157
765.4,-0.0148
765.2,-0.0149
765.0,-0.0145
764.8,-0.0141
764.6,-0.0147
764.4,-0.0146
764.2,-0.0144
764.0,-0.0135
763.8,-0.0139
763.6,-0.0140
763.4,-0.0133
763.2,-0.0128
763.0,-0.0130
762.8,-0.0125
762.6,-0.0129
762.4,-0.0122
762.2,-0.0123
762.0,-0.0118
761.8,-0.0123
761.6,-0.0123
761.4,-0.0129
761.2,-0.0125
761.0,-0.0124
760.8,-0.0122
760.6,-0.0127
760.4,-0.0130
760.2,-0.0131
760.0,-0.0132
759.8,-0.0134
759.6,-0.0131
759.4,-0.0145
759.2,-0.0143
759.0,-0.0144
758.8,-0.0154
758.6,-0.0153
758.4,-0.0159
758.2,-0.0158
758.0,-0.0153
757.8,-0.0159
757.6,-0.0177
757.4,-0.0172
757.2,-0.0166
757.0,-0.0176
756.8,-0.0181
756.6,-0.0178
756.4,-0.0188
756.2,-0.0194
756.0,-0.0206
755.8,-0.0209
755.6,-0.0213
755.4,-0.0217
755.2,-0.0213
755.0,-0.0225
754.8,-0.0218
754.6,-0.0226
754.4,-0.0229
754.2,-0.0235
754.0,-0.0235
753.8,-0.0253
753.6,-0.0249
753.4,-0.0243
753.2,-0.0254
753.0,-0.0249
752.8,-0.0259
752.6,-0.0259
752.4,-0.0259
752.2,-0.0256
752.0,-0.0267
751.8,-0.0274
751.6,-0.0270
751.4,-0.0269
751.2,-0.0275
751.0,-0.0274
750.8,-0.0272
750.6,-0.0275
750.4,-0.0270
750.2,-0.0283
750.0,-0.0272
749.8,-0.0280
749.6,-0.0281
749.4,-0.0283
749.2,-0.0272
749.0,-0.0275
748.8,-0.0282
748.6,-0.0284
748.4,-0.0281
748.2,-0.0279
748.0,-0.0286
747.8,-0.0272
747.6,-0.0275
747.4,-0.0285
747.2,-0.0284
747.0,-0.0284
746.8,-0.0285
746.6,-0.0282
746.4,-0.0284
746.2,-0.0284
746.0,-0.0283
745.8,-0.0277
745.6,-0.0275
745.4,-0.0280
745.2,-0.0278
745.0,-0.0278
744.8,-0.0286
744.6,-0.0284
744.4,-0.0288
744.2,-0.0282
744.0,-0.0285
743.8,-0.0284
743.6,-0.0281
743.4,-0.0288
743.2,-0.0283
743.0,-0.0288
742.8,-0.0294
742.6,-0.0291
742.4,-0.0287
742.2,-0.0282
742.0,-0.0292
741.8,-0.0287
741.6,-0.0284
741.4,-0.0291
741.2,-0.0286
741.0,-0.0287
740.8,-0.0288
740.6,-0.0290
740.4,-0.0285
740.2,-0.0282
740.0,-0.0290
739.8,-0.0281
739.6,-0.0279
739.4,-0.0291
739.2,-0.0290
739.0,-0.0284
738.8,-0.0271
738.6,-0.0281
738.4,-0.0277
738.2,-0.0270
738.0,-0.0269
737.8,-0.0272
737.6,-0.0269
737.4,-0.0264
737.2,-0.0258
737.0,-0.0259
736.8,-0.0253
736.6,-0.0252
736.4,-0.0243
736.2,-0.0251
736.0,-0.0238
735.8,-0.0234
735.6,-0.0236
735.4,-0.0228
735.2,-0.0231
735.0,-0.0225
734.8,-0.0221
734.6,-0.0222
734.4,-0.0211
734.2,-0.0211
734.0,-0.0214
733.8,-0.0205
733.6,-0.0203
733.4,-0.0196
733.2,-0.0200
733.0,-0.0194
732.8,-0.0196
732.6,-0.0188
732.4,-0.0199
732.2,-0.0185
732.0,-0.0181
731.8,-0.0178
731.6,-0.0178
731.4,-0.0183
731.2,-0.0183
731.0,-0.0192
730.8,-0.0183
730.6,-0.0186
730.4,-0.0177
730.2,-0.0188
730.0,-0.0183
729.8,-0.0183
729.6,-0.0189
729.4,-0.0195
729.2,-0.0205
729.0,-0.0195
728.8,-0.0193
728.6,-0.0202
728.4,-0.0201
728.2,-0.0203
728.0,-0.0204
727.8,-0.0213
727.6,-0.0212
727.4,-0.0215
727.2,-0.0219
727.0,-0.0218
726.8,-0.0221
726.6,-0.0225
726.4,-0.0219
726.2,-0.0226
726.0,-0.0235
725.8,-0.0224
725.6,-0.0234
725.4,-0.0240
725.2,-0.0237
725.0,-0.0237
724.8,-0.0244
724.6,-0.0247
724.4,-0.0245
724.2,-0.0243
724.0,-0.0249
723.8,-0.0250
723.6,-0.0249
723.4,-0.0253
723.2,-0.0254
723.0,-0.0251
722.8,-0.0251
722.6,-0.0255
722.4,-0.0253
722.2,-0.0262
722.0,-0.0256
721.8,-0.0260
721.6,-0.0260
721.4,-0.0261
721.2,-0.0258
721.0,-0.0261
720.8,-0.0263
720.6,-0.0263
720.4,-0.0262
720.2,-0.0267
720.0,-0.0270
719.8,-0.0265
719.6,-0.0260
719.4,-0.0266
719.2,-0.0266
719.0,-0.0264
718.8,-0.0266
718.6,-0.0265
718.4,-0.0268
718.2,-0.0265
718.0,-0.0264
717.8,-0.0262
717.6,-0.0265
717.4,-0.0262
717.2,-0.0261
717.0,-0.0254
716.8,-0.0252
716.6,-0.0258
716.4,-0.0252
716.2,-0.0250
716.0,-0.0245
715.8,-0.0243
715.6,-0.0243
715.4,-0.0233
715.2,-0.0235
715.0,-0.0230
714.8,-0.0231
714.6,-0.0222
714.4,-0.0220
714.2,-0.0214
714.0,-0.0218
713.8,-0.0218
713.6,-0.0213
713.4,-0.0207
713.2,-0.0213
713.0,-0.0207
712.8,-0.0207
712.6,-0.0206
712.4,-0.0204
712.2,-0.0200
712.0,-0.0201
711.8,-0.0202
711.6,-0.0206
711.4,-0.0208
711.2,-0.0200
711.0,-0.0206
710.8,-0.0212
710.6,-0.0216
710.4,-0.0218
710.2,-0.0218
710.0,-0.0222
709.8,-0.0227
709.6,-0.0228
709.4,-0.0235
709.2,-0.0237
709.0,-0.0232
708.8,-0.0246
708.6,-0.0243
708.4,-0.0251
708.2,-0.0250
708.0,-0.0252
707.8,-0.0260
707.6,-0.0252
707.4,-0.0257
707.2,-0.0261
707.0,-0.0261
706.8,-0.0267
706.6,-0.0275
706.4,-0.0273
706.2,-0.0268
706.0,-0.0261
705.8,-0.0279
705.6,-0.0274
705.4,-0.0274
705.2,-0.0276
705.0,-0.0272
704.8,-0.0277
704.6,-0.0279
704.4,-0.0280
704.2,-0.0284
704.0,-0.0282
703.8,-0.0278
703.6,-0.0285
703.4,-0.0285
703.2,-0.0287
703.0,-0.0286
702.8,-0.0294
702.6,-0.0285
702.4,-0.0285
702.2,-0.0280
702.0,-0.0279
701.8,-0.0285
701.6,-0.0277
701.4,-0.0284
701.2,-0.0279
701.0,-0.0277
700.8,-0.0275
700.6,-0.0268
700.4,-0.0268
700.2,-0.0261
700.0,-0.0261
699.8,-0.0257
699.6,-0.0256
699.4,-0.0248
699.2,-0.0246
699.0,-0.0244
698.8,-0.0239
698.6,-0.0233
698.4,-0.0232
698.2,-0.0231
698.0,-0.0223
697.8,-0.0226
697.6,-0.0222
697.4,-0.0216
697.2,-0.0214
697.0,-0.0209
696.8,-0.0202
696.6,-0.0206
696.4,-0.0203
696.2,-0.0205
696.0,-0.0195
695.8,-0.0201
695.6,-0.0194
695.4,-0.0195
695.2,-0.0198
695.0,-0.0200
694.8,-0.0199
694.6,-0.0199
694.4,-0.0193
694.2,-0.0196
694.0,-0.0196
693.8,-0.0194
693.6,-0.0193
693.4,-0.0196
693.2,-0.0194
693.0,-0.0198
692.8,-0.0198
692.6,-0.0200
692.4,-0.0202
692.2,-0.0203
692.0,-0.0200
691.8,-0.0203
691.6,-0.0204
691.4,-0.0208
691.2,-0.0205
691.0,-0.0211
690.8,-0.0212
690.6,-0.0212
690.4,-0.0212
690.2,-0.0212
690.0,-0.0217
689.8,-0.0219
689.6,-0.0226
689.4,-0.0221
689.2,-0.0226
689.0,-0.0231
688.8,-0.0234
688.6,-0.0233
688.4,-0.0233
688.2,-0.0236
688.0,-0.0243
687.8,-0.0245
687.6,-0.0239
687.4,-0.0248
687.2,-0.0250
687.0,-0.0248
686.8,-0.0251
686.6,-0.0256
686.4,-0.0249
686.2,-0.0248
686.0,-0.0257
685.8,-0.0260
685.6,-0.0257
685.4,-0.0253
685.2,-0.0259
685.0,-0.0264
684.8,-0.0263
684.6,-0.0263
684.4,-0.0256
684.2,-0.0258
684.0,-0.0262
683.8,-0.0263
683.6,-0.0265
683.4,-0.0267
683.2,-0.0265
683.0,-0.0263
682.8,-0.0261
682.6,-0.0265
682.4,-0.0264
682.2,-0.0270
682.0,-0.0266
681.8,-0.0269
681.6,-0.0266
681.4,-0.0271
681.2,-0.0271
681.0,-0.0270
680.8,-0.0269
680.6,-0.0274
680.4,-0.0271
680.2,-0.0272
680.0,-0.0274
679.8,-0.0275
679.6,-0.0272
679.4,-0.0270
679.2,-0.0273
679.0,-0.0276
678.8,-0.0272
678.6,-0.0273
678.4,-0.0271
678.2,-0.0282
678.0,-0.0275
677.8,-0.0276
677.6,-0.0276
677.4,-0.0273
677.2,-0.0276
677.0,-0.0276
676.8,-0.0278
676.6,-0.0280
676.4,-0.0275
676.2,-0.0276
676.0,-0.0278
675.8,-0.0277
675.6,-0.0277
675.4,-0.0278
675.2,-0.0278
675.0,-0.0279
674.8,-0.0278
674.6,-0.0279
674.4,-0.0276
674.2,-0.0275
674.0,-0.0277
673.8,-0.0280
673.6,-0.0278
673.4,-0.0277
673.2,-0.0276
673.0,-0.0278
672.8,-0.0274
672.6,-0.0278
672.4,-0.0277
672.2,-0.0276
672.0,-0.0280
671.8,-0.0273
671.6,-0.0278
671.4,-0.0272
671.2,-0.0272
671.0,-0.0272
670.8,-0.0272
670.6,-0.0274
670.4,-0.0274
670.2,-0.0265
670.0,-0.0275
669.8,-0.0270
669.6,-0.0274
669.4,-0.0270
669.2,-0.0271
669.0,-0.0266
668.8,-0.0267
668.6,-0.0269
668.4,-0.0266
668.2,-0.0268
668.0,-0.0267
667.8,-0.0268
667.6,-0.0266
667.4,-0.0261
667.2,-0.0260
667.0,-0.0266
666.8,-0.0267
666.6,-0.0266
666.4,-0.0264
666.2,-0.0263
666.0,-0.0262
665.8,-0.0259
665.6,-0.0261
665.4,-0.0260
665.2,-0.0261
665.0,-0.0257
664.8,-0.0259
664.6,-0.0259
664.4,-0.0259
664.2,-0.0256
664.0,-0.0260
663.8,-0.0261
663.6,-0.0258
663.4,-0.0253
663.2,-0.0259
663.0,-0.0256
662.8,-0.0258
662.6,-0.0260
662.4,-0.0261
662.2,-0.0254
662.0,-0.0256
661.8,-0.0255
661.6,-0.0257
661.4,-0.0258
661.2,-0.0255
661.0,-0.0250
660.8,-0.0258
660.6,-0.0256
660.4,-0.0255
660.2,-0.0252
660.0,-0.0256
659.8,-0.0250
659.6,-0.0256
659.4,-0.0255
659.2,-0.0250
659.0,-0.0256
658.8,-0.0250
658.6,-0.0254
658.4,-0.0259
658.2,-0.0256
658.0,-0.0257
657.8,-0.0254
657.6,-0.0255
657.4,-0.0258
657.2,-0.0252
657.0,-0.0254
656.8,-0.0253
656.6,-0.0255
656.4,-0.0253
656.2,-0.0257
656.0,-0.0257
655.8,-0.0253
655.6,-0.0254
655.4,-0.0257
655.2,-0.0258
655.0,-0.0262
654.8,-0.0252
654.6,-0.0258
654.4,-0.0256
654.2,-0.0255
654.0,-0.0258
653.8,-0.0256
653.6,-0.0262
653.4,-0.0258
653.2,-0.0255
653.0,-0.0261
652.8,-0.0263
652.6,-0.0265
652.4,-0.0264
652.2,-0.0262
652.0,-0.0263
651.8,-0.0261
651.6,-0.0266
651.4,-0.0263
651.2,-0.0263
651.0,-0.0263
650.8,-0.0262
650.6,-0.0261
650.4,-0.0262
650.2,-0.0265
650.0,-0.0264
649.8,-0.0265
649.6,-0.0274
649.4,-0.0269
649.2,-0.0272
649.0,-0.0275
648.8,-0.0275
648.6,-0.0274
648.4,-0.0273
648.2,-0.0272
648.0,-0.0272
647.8,-0.0271
647.6,-0.0274
647.4,-0.0277
647.2,-0.0277
647.0,-0.0275
646.8,-0.0278
646.6,-0.0278
646.4,-0.0278
646.2,-0.0279
646.0,-0.0280
645.8,-0.0281
645.6,-0.0282
645.4,-0.0283
645.2,-0.0282
645.0,-0.0280
644.8,-0.0277
644.6,-0.0284
644.4,-0.0287
644.2,-0.0285
644.0,-0.0288
643.8,-0.0289
643.6,-0.0293
643.4,-0.0289
643.2,-0.0294
643.0,-0.0296
642.8,-0.0296
642.6,-0.0301
642.4,-0.0293
642.2,-0.0296
642.0,-0.0298
641.8,-0.0293
641.6,-0.0300
641.4,-0.0302
641.2,-0.0303
641.0,-0.0299
640.8,-0.0297
640.6,-0.0301
640.4,-0.0299
640.2,-0.0303
640.0,-0.0309
639.8,-0.0308
639.6,-0.0311
639.4,-0.0308
639.2,-0.0314
639.0,-0.0313
638.8,-0.0313
638.6,-0.0315
638.4,-0.0315
638.2,-0.0318
638.0,-0.0315
637.8,-0.0317
637.6,-0.0319
637.4,-0.0317
637.2,-0.0320
637.0,-0.0324
636.8,-0.0322
636.6,-0.0320
636.4,-0.0327
636.2,-0.0323
636.0,-0.0330
635.8,-0.0325
635.6,-0.0328
635.4,-0.0323
635.2,-0.0326
635.0,-0.0327
634.8,-0.0331
634.6,-0.0330
634.4,-0.0337
634.2,-0.0333
634.0,-0.0336
633.8,-0.0335
633.6,-0.0336
633.4,-0.0338
633.2,-0.0340
633.0,-0.0338
632.8,-0.0336
632.6,-0.0340
632.4,-0.0341
632.2,-0.0343
632.0,-0.0343
631.8,-0.0343
631.6,-0.0346
631.4,-0.0346
631.2,-0.0353
631.0,-0.0347
630.8,-0.0351
630.6,-0.0347
630.4,-0.0352
630.2,-0.0356
630.0,-0.0353
629.8,-0.0355
629.6,-0.0355
629.4,-0.0357
629.2,-0.0354
629.0,-0.0357
628.8,-0.0355
628.6,-0.0358
628.4,-0.0358
628.2,-0.0360
628.0,-0.0359
627.8,-0.0358
627.6,-0.0363
627.4,-0.0366
627.2,-0.0360
627.0,-0.0368
626.8,-0.0368
626.6,-0.0369
626.4,-0.0368
626.2,-0.0370
626.0,-0.0371
625.8,-0.0371
625.6,-0.0375
625.4,-0.0372
625.2,-0.0376
625.0,-0.0375
624.8,-0.0373
624.6,-0.0376
624.4,-0.0376
624.2,-0.0377
624.0,-0.0375
623.8,-0.0377
623.6,-0.0380
623.4,-0.0378
623.2,-0.0380
623.0,-0.0384
622.8,-0.0381
622.6,-0.0389
622.4,-0.0386
622.2,-0.0388
622.0,-0.0386
621.8,-0.0384
621.6,-0.0386
621.4,-0.0388
621.2,-0.0387
621.0,-0.0386
620.8,-0.0387
620.6,-0.0391
620.4,-0.0389
620.2,-0.0396
620.0,-0.0394
619.8,-0.0395
619.6,-0.0393
619.4,-0.0393
619.2,-0.0395
619.0,-0.0394
618.8,-0.0398
618.6,-0.0398
618.4,-0.0401
618.2,-0.0401
618.0,-0.0399
617.8,-0.0398
617.6,-0.0397
617.4,-0.0400
617.2,-0.0401
617.0,-0.0396
616.8,-0.0402
616.6,-0.0403
616.4,-0.0406
616.2,-0.0402
616.0,-0.0405
615.8,-0.0406
615.6,-0.0407
615.4,-0.0406
615.2,-0.0408
615.0,-0.0408
614.8,-0.0409
614.6,-0.0408
614.4,-0.0407
614.2,-0.0411
614.0,-0.0411
613.8,-0.0416
613.6,-0.0412
613.4,-0.0410
613.2,-0.0409
613.0,-0.0418
612.8,-0.0413
612.6,-0.0414
612.4,-0.0416
612.2,-0.0411
612.0,-0.0411
611.8,-0.0413
611.6,-0.0417
611.4,-0.0413
611.2,-0.0414
611.0,-0.0417
610.8,-0.0417
610.6,-0.0415
610.4,-0.0417
610.2,-0.0411
610.0,-0.0416
609.8,-0.0418
609.6,-0.0419
609.4,-0.0420
609.2,-0.0414
609.0,-0.0415
608.8,-0.0416
608.6,-0.0419
608.4,-0.0420
608.2,-0.0417
608.0,-0.0414
607.8,-0.0420
607.6,-0.0418
607.4,-0.0419
607.2,-0.0421
607.0,-0.0415
606.8,-0.0418
606.6,-0.0421
606.4,-0.0420
606.2,-0.0417
606.0,-0.0416
605.8,-0.0419
605.6,-0.0420
605.4,-0.0417
605.2,-0.0416
605.0,-0.0418
604.8,-0.0418
604.6,-0.0417
604.4,-0.0422
604.2,-0.0421
604.0,-0.0420
603.8,-0.0416
603.6,-0.0419
603.4,-0.0418
603.2,-0.0418
603.0,-0.0419
602.8,-0.0420
602.6,-0.0414
602.4,-0.0415
602.2,-0.0418
602.0,-0.0418
601.8,-0.0416
601.6,-0.0416
601.4,-0.0418
601.2,-0.0418
601.0,-0.0415
600.8,-0.0417
600.6,-0.0415
600.4,-0.0417
600.2,-0.0415
600.0,-0.0416
599.8,-0.0413
599.6,-0.0416
599.4,-0.0417
599.2,-0.0414
599.0,-0.0414
598.8,-0.0415
598.6,-0.0414
598.4,-0.0413
598.2,-0.0412
598.0,-0.0414
597.8,-0.0418
597.6,-0.0413
597.4,-0.0417
597.2,-0.0415
597.0,-0.0414
596.8,-0.0416
596.6,-0.0415
596.4,-0.0415
596.2,-0.0416
596.0,-0.0416
595.8,-0.0417
595.6,-0.0416
595.4,-0.0412
595.2,-0.0415
595.0,-0.0416
594.8,-0.0416
594.6,-0.0418
594.4,-0.0414
594.2,-0.0414
594.0,-0.0417
593.8,-0.0414
593.6,-0.0420
593.4,-0.0420
593.2,-0.0420
593.0,-0.0421
592.8,-0.0418
592.6,-0.0418
592.4,-0.0418
592.2,-0.0417
592.0,-0.0416
591.8,-0.0420
591.6,-0.0418
591.4,-0.0419
591.2,-0.0418
591.0,-0.0424
590.8,-0.0422
590.6,-0.0416
590.4,-0.0421
590.2,-0.0419
590.0,-0.0422
589.8,-0.0424
589.6,-0.0423
589.4,-0.0423
589.2,-0.0425
589.0,-0.0426
588.8,-0.0424
588.6,-0.0424
588.4,-0.0427
588.2,-0.0425
588.0,-0.0425
587.8,-0.0423
587.6,-0.0426
587.4,-0.0431
587.2,-0.0427
587.0,-0.0431
586.8,-0.0429
586.6,-0.0429
586.4,-0.0428
586.2,-0.0431
586.0,-0.0432
585.8,-0.0430
585.6,-0.0433
585.4,-0.0435
585.2,-0.0432
585.0,-0.0433
584.8,-0.0431
584.6,-0.0434
584.4,-0.0433
584.2,-0.0434
584.0,-0.0436
583.8,-0.0435
583.6,-0.0435
583.4,-0.0434
583.2,-0.0439
583.0,-0.0438
582.8,-0.0439
582.6,-0.0439
582.4,-0.0443
582.2,-0.0441
582.0,-0.0437
581.8,-0.0441
581.6,-0.0446
581.4,-0.0441
581.2,-0.0441
581.0,-0.0441
580.8,-0.0441
580.6,-0.0442
580.4,-0.0443
580.2,-0.0445
580.0,-0.0443