File: Figure1/UV-vis/Sample337.Sample.csv
Created as New Dataset,
nm,A
800.0,-0.0002
799.8,0.0024
799.6,-0.0001
799.4,0.0006
799.2,0.0004
799.0,0.0004
798.8,0.0012
798.6,0.0002
798.4,0.0009
798.2,0.0001
798.0,0.0000
797.8,0.0012
797.6,-0.0006
797.4,-0.0006
797.2,0.0017
797.0,0.0014
796.8,0.0007
796.6,0.0005
796.4,0.0013
796.2,-0.0003
796.0,0.0006
795.8,-0.0001
795.6,-0.0000
795.4,-0.0008
795.2,0.0004
795.0,0.0000
794.8,0.0001
794.6,0.0007
794.4,0.0004
794.2,0.0009
794.0,-0.0000
793.8,0.0006
793.6,-0.0002
793.4,-0.0008
793.2,0.0001
793.0,0.0004
792.8,0.0007
792.6,0.0001
792.4,0.0007
792.2,0.0011
792.0,0.0003
791.8,0.0006
791.6,0.0008
791.4,-0.0003
791.2,0.0002
791.0,0.0002
790.8,0.0002
790.6,0.0001
790.4,0.0003
790.2,0.0016
790.0,0.0002
789.8,0.0001
789.6,0.0001
789.4,0.0011
789.2,0.0004
789.0,0.0009
788.8,-0.0002
788.6,0.0000
788.4,0.0002
788.2,-0.0006
788.0,0.0003
787.8,-0.0002
787.6,0.0007
787.4,0.0003
787.2,0.0000
787.0,0.0005
786.8,0.0010
786.6,-0.0001
786.4,0.0003
786.2,0.0002
786.0,-0.0002
785.8,-0.0004
785.6,-0.0004
785.4,-0.0004
785.2,-0.0003
785.0,-0.0002
784.8,0.0002
784.6,0.0002
784.4,0.0010
784.2,0.0001
784.0,0.0004
783.8,0.0004
783.6,0.0005
783.4,0.0005
783.2,0.0002
783.0,0.0004
782.8,-0.0000
782.6,0.0002
782.4,0.0007
782.2,0.0003
782.0,0.0009
781.8,0.0014
781.6,-0.0003
781.4,-0.0006
781.2,-0.0003
781.0,-0.0000
780.8,-0.0002
780.6,0.0011
780.4,-0.0004
780.2,0.0006
780.0,0.0003
779.8,0.0017
779.6,0.0005
779.4,0.0009
779.2,0.0011
779.0,0.0004
778.8,0.0004
778.6,0.0001
778.4,0.0001
778.2,0.0007
778.0,0.0001
777.8,-0.0001
777.6,0.0004
777.4,0.0007
777.2,0.0013
777.0,0.0007
776.8,0.0007
776.6,0.0006
776.4,-0.0001
776.2,-0.0004
776.0,-0.0002
775.8,0.0011
775.6,-0.0004
775.4,0.0004
775.2,0.0007
775.0,0.0001
774.8,0.0001
774.6,0.0018
774.4,-0.0003
774.2,0.0003
774.0,0.0009
773.8,0.0003
773.6,0.0002
773.4,0.0002
773.2,0.0009
773.0,-0.0001
772.8,0.0009
772.6,0.0005
772.4,0.0008
772.2,0.0001
772.0,0.0010
771.8,0.0007
771.6,0.0002
771.4,-0.0004
771.2,-0.0000
771.0,0.0007
770.8,0.0005
770.6,0.0004
770.4,-0.0004
770.2,0.0002
770.0,0.0014
769.8,0.0004
769.6,0.0001
769.4,0.0011
769.2,0.0011
769.0,0.0014
768.8,0.0015
768.6,0.0007
768.4,0.0007
768.2,0.0002
768.0,0.0014
767.8,0.0001
767.6,0.0007
767.4,0.0012
767.2,0.0012
767.0,-0.0004
766.8,0.0008
766.6,0.0012
766.4,0.0010
766.2,0.0008
766.0,0.0005
765.8,0.0005
765.6,0.0002
765.4,0.0011
765.2,0.0013
765.0,0.0015
764.8,0.0007
764.6,0.0007
764.4,0.0007
764.2,0.0003
764.0,0.0008
763.8,0.0011
763.6,0.0003
763.4,0.0011
763.2,0.0014
763.0,0.0015
762.8,0.0016
762.6,0.0019
762.4,0.0011
762.2,0.0019
762.0,0.0016
761.8,0.0015
761.6,0.0018
761.4,0.0016
761.2,0.0010
761.0,0.0017
760.8,0.0015
760.6,0.0016
760.4,0.0014
760.2,0.0005
760.0,0.0020
759.8,0.0014
759.6,0.0014
759.4,0.0007
759.2,0.0019
759.0,0.0009
758.8,0.0017
758.6,0.0014
758.4,0.0022
758.2,0.0017
758.0,0.0019
757.8,0.0020
757.6,0.0009
757.4,0.0014
757.2,0.0025
757.0,0.0018
756.8,0.0017
756.6,0.0020
756.4,0.0017
756.2,0.0018
756.0,0.0009
755.8,0.0016
755.6,0.0016
755.4,0.0016
755.2,0.0012
755.0,0.0013
754.8,0.0024
754.6,0.0040
754.4,0.0021
754.2,0.0017
754.0,0.0025
753.8,0.0017
753.6,0.0014
753.4,0.0020
753.2,0.0015
753.0,0.0013
752.8,0.0022
752.6,0.0028
752.4,0.0021
752.2,0.0021
752.0,0.0018
751.8,0.0015
751.6,0.0018
751.4,0.0016
751.2,0.0018
751.0,0.0016
750.8,0.0016
750.6,0.0022
750.4,0.0022
750.2,0.0015
750.0,0.0022
749.8,0.0023
749.6,0.0017
749.4,0.0022
749.2,0.0016
749.0,0.0016
748.8,0.0019
748.6,0.0019
748.4,0.0019
748.2,0.0018
748.0,0.0009
747.8,0.0023
747.6,0.0030
747.4,0.0031
747.2,0.0025
747.0,0.0025
746.8,0.0016
746.6,0.0024
746.4,0.0019
746.2,0.0014
746.0,0.0017
745.8,0.0016
745.6,0.0025
745.4,0.0025
745.2,0.0020
745.0,0.0026
744.8,0.0022
744.6,0.0022
744.4,0.0017
744.2,0.0022
744.0,0.0020
743.8,0.0021
743.6,0.0024
743.4,0.0021
743.2,0.0024
743.0,0.0021
742.8,0.0017
742.6,0.0022
742.4,0.0025
742.2,0.0029
742.0,0.0020
741.8,0.0021
741.6,0.0024
741.4,0.0020
741.2,0.0022
741.0,0.0027
740.8,0.0020
740.6,0.0020
740.4,0.0023
740.2,0.0025
740.0,0.0016
739.8,0.0024
739.6,0.0027
739.4,0.0015
739.2,0.0014
739.0,0.0015
738.8,0.0026
738.6,0.0023
738.4,0.0020
738.2,0.0023
738.0,0.0024
737.8,0.0019
737.6,0.0020
737.4,0.0020
737.2,0.0027
737.0,0.0020
736.8,0.0018
736.6,0.0021
736.4,0.0029
736.2,0.0013
736.0,0.0023
735.8,0.0020
735.6,0.0025
735.4,0.0017
735.2,0.0022
735.0,0.0024
734.8,0.0023
734.6,0.0020
734.4,0.0026
734.2,0.0020
734.0,0.0006
733.8,0.0024
733.6,0.0017
733.4,0.0024
733.2,0.0018
733.0,0.0023
732.8,0.0015
732.6,0.0020
732.4,0.0017
732.2,0.0023
732.0,0.0020
731.8,0.0024
731.6,0.0023
731.4,0.0015
731.2,0.0025
731.0,0.0014
730.8,0.0025
730.6,0.0016
730.4,0.0021
730.2,0.0022
730.0,0.0019
729.8,0.0013
729.6,0.0025
729.4,0.0021
729.2,0.0014
729.0,0.0024
728.8,0.0023
728.6,0.0018
728.4,0.0020
728.2,0.0017
728.0,0.0029
727.8,0.0023
727.6,0.0020
727.4,0.0020
727.2,0.0022
727.0,0.0018
726.8,0.0021
726.6,0.0025
726.4,0.0017
726.2,0.0020
726.0,0.0018
725.8,0.0027
725.6,0.0017
725.4,0.0021
725.2,0.0029
725.0,0.0023
724.8,0.0018
724.6,0.0023
724.4,0.0016
724.2,0.0023
724.0,0.0019
723.8,0.0019
723.6,0.0023
723.4,0.0017
723.2,0.0020
723.0,0.0025
722.8,0.0021
722.6,0.0019
722.4,0.0023
722.2,0.0024
722.0,0.0025
721.8,0.0023
721.6,0.0024
721.4,0.0023
721.2,0.0026
721.0,0.0022
720.8,0.0022
720.6,0.0023
720.4,0.0022
720.2,0.0022
720.0,0.0019
719.8,0.0022
719.6,0.0027
719.4,0.0026
719.2,0.0021
719.0,0.0024
718.8,0.0025
718.6,0.0026
718.4,0.0024
718.2,0.0022
718.0,0.0026
717.8,0.0033
717.6,0.0023
717.4,0.0023
717.2,0.0023
717.0,0.0032
716.8,0.0028
716.6,0.0033
716.4,0.0026
716.2,0.0026
716.0,0.0034
715.8,0.0026
715.6,0.0026
715.4,0.0032
715.2,0.0030
715.0,0.0028
714.8,0.0032
714.6,0.0030
714.4,0.0027
714.2,0.0029
714.0,0.0028
713.8,0.0032
713.6,0.0028
713.4,0.0032
713.2,0.0035
713.0,0.0030
712.8,0.0033
712.6,0.0031
712.4,0.0033
712.2,0.0035
712.0,0.0035
711.8,0.0030
711.6,0.0036
711.4,0.0031
711.2,0.0038
711.0,0.0037
710.8,0.0038
710.6,0.0039
710.4,0.0039
710.2,0.0042
710.0,0.0034
709.8,0.0037
709.6,0.0040
709.4,0.0033
709.2,0.0040
709.0,0.0041
708.8,0.0033
708.6,0.0042
708.4,0.0042
708.2,0.0036
708.0,0.0043
707.8,0.0035
707.6,0.0047
707.4,0.0038
707.2,0.0039
707.0,0.0036
706.8,0.0034
706.6,0.0041
706.4,0.0041
706.2,0.0042
706.0,0.0044
705.8,0.0030
705.6,0.0040
705.4,0.0041
705.2,0.0047
705.0,0.0049
704.8,0.0043
704.6,0.0037
704.4,0.0043
704.2,0.0042
704.0,0.0041
703.8,0.0044
703.6,0.0043
703.4,0.0042
703.2,0.0041
703.0,0.0045
702.8,0.0039
702.6,0.0047
702.4,0.0042
702.2,0.0044
702.0,0.0045
701.8,0.0045
701.6,0.0050
701.4,0.0047
701.2,0.0043
701.0,0.0042
700.8,0.0045
700.6,0.0049
700.4,0.0042
700.2,0.0044
700.0,0.0045
699.8,0.0052
699.6,0.0044
699.4,0.0049
699.2,0.0040
699.0,0.0042
698.8,0.0049
698.6,0.0051
698.4,0.0045
698.2,0.0047
698.0,0.0053
697.8,0.0046
697.6,0.0050
697.4,0.0050
697.2,0.0043
697.0,0.0051
696.8,0.0053
696.6,0.0049
696.4,0.0049
696.2,0.0045
696.0,0.0049
695.8,0.0045
695.6,0.0046
695.4,0.0048
695.2,0.0045
695.0,0.0047
694.8,0.0048
694.6,0.0051
694.4,0.0044
694.2,0.0042
694.0,0.0047
693.8,0.0045
693.6,0.0047
693.4,0.0050
693.2,0.0052
693.0,0.0053
692.8,0.0049
692.6,0.0049
692.4,0.0054
692.2,0.0052
692.0,0.0053
691.8,0.0054
691.6,0.0055
691.4,0.0053
691.2,0.0051
691.0,0.0047
690.8,0.0056
690.6,0.0056
690.4,0.0056
690.2,0.0057
690.0,0.0051
689.8,0.0058
689.6,0.0050
689.4,0.0060
689.2,0.0058
689.0,0.0052
688.8,0.0056
688.6,0.0057
688.4,0.0056
688.2,0.0059
688.0,0.0047
687.8,0.0049
687.6,0.0055
687.4,0.0054
687.2,0.0055
687.0,0.0054
686.8,0.0057
686.6,0.0053
686.4,0.0062
686.2,0.0064
686.0,0.0060
685.8,0.0054
685.6,0.0057
685.4,0.0056
685.2,0.0053
685.0,0.0056
684.8,0.0061
684.6,0.0058
684.4,0.0062
684.2,0.0069
684.0,0.0058
683.8,0.0066
683.6,0.0063
683.4,0.0058
683.2,0.0061
683.0,0.0069
682.8,0.0060
682.6,0.0062
682.4,0.0061
682.2,0.0055
682.0,0.0061
681.8,0.0064
681.6,0.0061
681.4,0.0053
681.2,0.0060
681.0,0.0063
680.8,0.0062
680.6,0.0055
680.4,0.0062
680.2,0.0066
680.0,0.0062
679.8,0.0060
679.6,0.0061
679.4,0.0064
679.2,0.0062
679.0,0.0065
678.8,0.0067
678.6,0.0062
678.4,0.0067
678.2,0.0064
678.0,0.0070
677.8,0.0068
677.6,0.0065
677.4,0.0069
677.2,0.0067
677.0,0.0067
676.8,0.0065
676.6,0.0068
676.4,0.0070
676.2,0.0069
676.0,0.0072
675.8,0.0071
675.6,0.0071
675.4,0.0071
675.2,0.0069
675.0,0.0067
674.8,0.0072
674.6,0.0072
674.4,0.0074
674.2,0.0072
674.0,0.0075
673.8,0.0070
673.6,0.0070
673.4,0.0072
673.2,0.0072
673.0,0.0075
672.8,0.0076
672.6,0.0073
672.4,0.0078
672.2,0.0074
672.0,0.0072
671.8,0.0077
671.6,0.0072
671.4,0.0075
671.2,0.0079
671.0,0.0079
670.8,0.0084
670.6,0.0078
670.4,0.0079
670.2,0.0082
670.0,0.0076
669.8,0.0080
669.6,0.0077
669.4,0.0078
669.2,0.0076
669.0,0.0080
668.8,0.0085
668.6,0.0085
668.4,0.0080
668.2,0.0080
668.0,0.0081
667.8,0.0081
667.6,0.0080
667.4,0.0081
667.2,0.0087
667.0,0.0085
666.8,0.0084
666.6,0.0085
666.4,0.0078
666.2,0.0083
666.0,0.0086
665.8,0.0086
665.6,0.0088
665.4,0.0084
665.2,0.0082
665.0,0.0083
664.8,0.0080
664.6,0.0087
664.4,0.0088
664.2,0.0090
664.0,0.0089
663.8,0.0084
663.6,0.0082
663.4,0.0087
663.2,0.0087
663.0,0.0086
662.8,0.0084
662.6,0.0081
662.4,0.0078
662.2,0.0083
662.0,0.0085
661.8,0.0085
661.6,0.0082
661.4,0.0084
661.2,0.0088
661.0,0.0081
660.8,0.0076
660.6,0.0089
660.4,0.0086
660.2,0.0080
660.0,0.0083
659.8,0.0086
659.6,0.0078
659.4,0.0080
659.2,0.0085
659.0,0.0082
658.8,0.0083
658.6,0.0081
658.4,0.0081
658.2,0.0080
658.0,0.0079
657.8,0.0082
657.6,0.0081
657.4,0.0076
657.2,0.0080
657.0,0.0077
656.8,0.0080
656.6,0.0081
656.4,0.0078
656.2,0.0080
656.0,0.0073
655.8,0.0077
655.6,0.0080
655.4,0.0078
655.2,0.0073
655.0,0.0075
654.8,0.0079
654.6,0.0076
654.4,0.0076
654.2,0.0079
654.0,0.0075
653.8,0.0076
653.6,0.0075
653.4,0.0073
653.2,0.0075
653.0,0.0075
652.8,0.0070
652.6,0.0072
652.4,0.0069
652.2,0.0074
652.0,0.0070
651.8,0.0070
651.6,0.0069
651.4,0.0073
651.2,0.0075
651.0,0.0075
650.8,0.0072
650.6,0.0072
650.4,0.0078
650.2,0.0076
650.0,0.0073
649.8,0.0071
649.6,0.0066
649.4,0.0067
649.2,0.0070
649.0,0.0066
648.8,0.0067
648.6,0.0069
648.4,0.0062
648.2,0.0068
648.0,0.0072
647.8,0.0069
647.6,0.0065
647.4,0.0067
647.2,0.0068
647.0,0.0066
646.8,0.0066
646.6,0.0065
646.4,0.0067
646.2,0.0066
646.0,0.0065
645.8,0.0064
645.6,0.0065
645.4,0.0067
645.2,0.0067
645.0,0.0068
644.8,0.0068
644.6,0.0066
644.4,0.0065
644.2,0.0066
644.0,0.0063
643.8,0.0066
643.6,0.0060
643.4,0.0063
643.2,0.0064
643.0,0.0061
642.8,0.0062
642.6,0.0060
642.4,0.0067
642.2,0.0062
642.0,0.0060
641.8,0.0064
641.6,0.0065
641.4,0.0058
641.2,0.0062
641.0,0.0060
640.8,0.0066
640.6,0.0066
640.4,0.0062
640.2,0.0063
640.0,0.0060
639.8,0.0058
639.6,0.0061
639.4,0.0062
639.2,0.0061
639.0,0.0058
638.8,0.0063
638.6,0.0058
638.4,0.0062
638.2,0.0055
638.0,0.0059
637.8,0.0059
637.6,0.0058
637.4,0.0058
637.2,0.0062
637.0,0.0060
636.8,0.0063
636.6,0.0059
636.4,0.0056
636.2,0.0060
636.0,0.0056
635.8,0.0062
635.6,0.0057
635.4,0.0061
635.2,0.0063
635.0,0.0063
634.8,0.0056
634.6,0.0064
634.4,0.0059
634.2,0.0058
634.0,0.0056
633.8,0.0059
633.6,0.0061
633.4,0.0059
633.2,0.0057
633.0,0.0061
632.8,0.0063
632.6,0.0059
632.4,0.0062
632.2,0.0056
632.0,0.0060
631.8,0.0060
631.6,0.0062
631.4,0.0060
631.2,0.0059
631.0,0.0062
630.8,0.0057
630.6,0.0059
630.4,0.0057
630.2,0.0055
630.0,0.0055
629.8,0.0055
629.6,0.0060
629.4,0.0061
629.2,0.0060
629.0,0.0061
628.8,0.0060
628.6,0.0059
628.4,0.0058
628.2,0.0058
628.0,0.0059
627.8,0.0059
627.6,0.0058
627.4,0.0058
627.2,0.0060
627.0,0.0058
626.8,0.0058
626.6,0.0057
626.4,0.0060
626.2,0.0057
626.0,0.0056
625.8,0.0057
625.6,0.0054
625.4,0.0056
625.2,0.0057
625.0,0.0053
624.8,0.0060
624.6,0.0059
624.4,0.0055
624.2,0.0057
624.0,0.0058
623.8,0.0059
623.6,0.0054
623.4,0.0056
623.2,0.0056
623.0,0.0060
622.8,0.0061
622.6,0.0049
622.4,0.0057
622.2,0.0056
622.0,0.0056
621.8,0.0059
621.6,0.0059
621.4,0.0054
621.2,0.0058
621.0,0.0058
620.8,0.0059
620.6,0.0056
620.4,0.0056
620.2,0.0055
620.0,0.0059
619.8,0.0056
619.6,0.0054
619.4,0.0056
619.2,0.0056
619.0,0.0054
618.8,0.0052
618.6,0.0052
618.4,0.0050
618.2,0.0051
618.0,0.0056
617.8,0.0055
617.6,0.0055
617.4,0.0054
617.2,0.0054
617.0,0.0053
616.8,0.0051
616.6,0.0052
616.4,0.0053
616.2,0.0055
616.0,0.0052
615.8,0.0049
615.6,0.0052
615.4,0.0054
615.2,0.0051
615.0,0.0053
614.8,0.0057
614.6,0.0051
614.4,0.0051
614.2,0.0052
614.0,0.0052
613.8,0.0048
613.6,0.0046
613.4,0.0052
613.2,0.0051
613.0,0.0041
612.8,0.0045
612.6,0.0045
612.4,0.0046
612.2,0.0051
612.0,0.0051
611.8,0.0046
611.6,0.0044
611.4,0.0047
611.2,0.0042
611.0,0.0047
610.8,0.0048
610.6,0.0044
610.4,0.0042
610.2,0.0045
610.0,0.0045
609.8,0.0043
609.6,0.0041
609.4,0.0043
609.2,0.0047
609.0,0.0046
608.8,0.0043
608.6,0.0042
608.4,0.0041
608.2,0.0044
608.0,0.0041
607.8,0.0037
607.6,0.0040
607.4,0.0040
607.2,0.0037
607.0,0.0037
606.8,0.0038
606.6,0.0037
606.4,0.0037
606.2,0.0035
606.0,0.0042
605.8,0.0034
605.6,0.0035
605.4,0.0037
605.2,0.0036
605.0,0.0038
604.8,0.0033
604.6,0.0034
604.4,0.0031
604.2,0.0034
604.0,0.0032
603.8,0.0031
603.6,0.0031
603.4,0.0033
603.2,0.0029
603.0,0.0033
602.8,0.0026
602.6,0.0030
602.4,0.0030
602.2,0.0029
602.0,0.0029
601.8,0.0030
601.6,0.0029
601.4,0.0029
601.2,0.0029
601.0,0.0029
600.8,0.0027
600.6,0.0027
600.4,0.0023
600.2,0.0024
600.0,0.0023
599.8,0.0024
599.6,0.0023
599.4,0.0021
599.2,0.0023
599.0,0.0020
598.8,0.0021
598.6,0.0021
598.4,0.0020
598.2,0.0022
598.0,0.0019
597.8,0.0017
597.6,0.0018
597.4,0.0016
597.2,0.0014
597.0,0.0017
596.8,0.0015
596.6,0.0017
596.4,0.0014
596.2,0.0012
596.0,0.0012
595.8,0.0014
595.6,0.0013
595.4,0.0015
595.2,0.0013
595.0,0.0010
594.8,0.0010
594.6,0.0009
594.4,0.0008
594.2,0.0012
594.0,0.0010
593.8,0.0012
593.6,0.0005
593.4,0.0007
593.2,0.0004
593.0,0.0003
592.8,0.0004
592.6,0.0008
592.4,0.0005
592.2,0.0006
592.0,0.0010
591.8,0.0004
591.6,0.0006
591.4,0.0002
591.2,0.0002
591.0,0.0001
590.8,0.0000
590.6,0.0001
590.4,0.0002
590.2,-0.0003
590.0,0.0002
589.8,0.0002
589.6,0.0000
589.4,-0.0000
589.2,-0.0005
589.0,-0.0004
588.8,-0.0001
588.6,-0.0004
588.4,-0.0002
588.2,-0.0003
588.0,-0.0002
587.8,-0.0004
587.6,-0.0004
587.4,-0.0008
587.2,-0.0008
587.0,-0.0008
586.8,-0.0009
586.6,-0.0010
586.4,-0.0011
586.2,-0.0010
586.0,-0.0010
585.8,-0.0014
585.6,-0.0012
585.4,-0.0013
585.2,-0.0012
585.0,-0.0011
584.8,-0.0009
584.6,-0.0012
584.4,-0.0009
584.2,-0.0016
584.0,-0.0014
583.8,-0.0015
583.6,-0.0015
583.4,-0.0014
583.2,-0.0019
583.0,-0.0015
582.8,-0.0019
582.6,-0.0016
582.4,-0.0021
582.2,-0.0022
582.0,-0.0017
581.8,-0.0019
581.6,-0.0021
581.4,-0.0021
581.2,-0.0021
581.0,-0.0020
580.8,-0.0019
580.6,-0.0021
580.4,-0.0025
580.2,-0.0024
580.0,-0.0026