File: Figure1/UV-vis/Sample348.Sample.csv
Created as New Dataset,
nm,A
800.0,0.0083
799.8,0.0067
799.6,0.0076
799.4,0.0080
799.2,0.0080
799.0,0.0079
798.8,0.0074
798.6,0.0066
798.4,0.0078
798.2,0.0079
798.0,0.0065
797.8,0.0078
797.6,0.0067
797.4,0.0075
797.2,0.0083
797.0,0.0077
796.8,0.0070
796.6,0.0078
796.4,0.0084
796.2,0.0073
796.0,0.0077
795.8,0.0079
795.6,0.0068
795.4,0.0062
795.2,0.0078
795.0,0.0081
794.8,0.0069
794.6,0.0082
794.4,0.0072
794.2,0.0081
794.0,0.0070
793.8,0.0083
793.6,0.0075
793.4,0.0063
793.2,0.0073
793.0,0.0077
792.8,0.0073
792.6,0.0075
792.4,0.0071
792.2,0.0076
792.0,0.0073
791.8,0.0072
791.6,0.0072
791.4,0.0069
791.2,0.0080
791.0,0.0078
790.8,0.0076
790.6,0.0078
790.4,0.0070
790.2,0.0085
790.0,0.0078
789.8,0.0070
789.6,0.0070
789.4,0.0079
789.2,0.0078
789.0,0.0084
788.8,0.0072
788.6,0.0074
788.4,0.0072
788.2,0.0074
788.0,0.0072
787.8,0.0073
787.6,0.0075
787.4,0.0078
787.2,0.0080
787.0,0.0076
786.8,0.0078
786.6,0.0068
786.4,0.0069
786.2,0.0077
786.0,0.0073
785.8,0.0074
785.6,0.0074
785.4,0.0072
785.2,0.0062
785.0,0.0063
784.8,0.0081
784.6,0.0071
784.4,0.0076
784.2,0.0081
784.0,0.0069
783.8,0.0084
783.6,0.0076
783.4,0.0075
783.2,0.0087
783.0,0.0078
782.8,0.0075
782.6,0.0075
782.4,0.0076
782.2,0.0074
782.0,0.0075
781.8,0.0090
781.6,0.0071
781.4,0.0074
781.2,0.0070
781.0,0.0076
780.8,0.0078
780.6,0.0081
780.4,0.0072
780.2,0.0066
780.0,0.0082
779.8,0.0078
779.6,0.0073
779.4,0.0084
779.2,0.0077
779.0,0.0080
778.8,0.0077
778.6,0.0069
778.4,0.0073
778.2,0.0087
778.0,0.0082
777.8,0.0074
777.6,0.0082
777.4,0.0085
777.2,0.0070
777.0,0.0084
776.8,0.0077
776.6,0.0082
776.4,0.0075
776.2,0.0068
776.0,0.0069
775.8,0.0082
775.6,0.0074
775.4,0.0064
775.2,0.0070
775.0,0.0082
774.8,0.0078
774.6,0.0086
774.4,0.0072
774.2,0.0079
774.0,0.0074
773.8,0.0078
773.6,0.0073
773.4,0.0071
773.2,0.0084
773.0,0.0081
772.8,0.0085
772.6,0.0077
772.4,0.0077
772.2,0.0073
772.0,0.0077
771.8,0.0082
771.6,0.0075
771.4,0.0071
771.2,0.0074
771.0,0.0078
770.8,0.0082
770.6,0.0075
770.4,0.0069
770.2,0.0081
770.0,0.0084
769.8,0.0086
769.6,0.0071
769.4,0.0085
769.2,0.0082
769.0,0.0083
768.8,0.0082
768.6,0.0071
768.4,0.0081
768.2,0.0081
768.0,0.0080
767.8,0.0073
767.6,0.0084
767.4,0.0087
767.2,0.0080
767.0,0.0074
766.8,0.0081
766.6,0.0087
766.4,0.0084
766.2,0.0083
766.0,0.0085
765.8,0.0076
765.6,0.0079
765.4,0.0084
765.2,0.0084
765.0,0.0081
764.8,0.0076
764.6,0.0082
764.4,0.0083
764.2,0.0075
764.0,0.0076
763.8,0.0074
763.6,0.0075
763.4,0.0085
763.2,0.0082
763.0,0.0085
762.8,0.0081
762.6,0.0088
762.4,0.0091
762.2,0.0091
762.0,0.0083
761.8,0.0083
761.6,0.0083
761.4,0.0083
761.2,0.0081
761.0,0.0083
760.8,0.0077
760.6,0.0079
760.4,0.0082
760.2,0.0075
760.0,0.0090
759.8,0.0078
759.6,0.0083
759.4,0.0077
759.2,0.0085
759.0,0.0073
758.8,0.0077
758.6,0.0079
758.4,0.0081
758.2,0.0083
758.0,0.0085
757.8,0.0092
757.6,0.0084
757.4,0.0082
757.2,0.0086
757.0,0.0085
756.8,0.0093
756.6,0.0089
756.4,0.0089
756.2,0.0088
756.0,0.0080
755.8,0.0084
755.6,0.0072
755.4,0.0087
755.2,0.0084
755.0,0.0076
754.8,0.0090
754.6,0.0087
754.4,0.0087
754.2,0.0084
754.0,0.0090
753.8,0.0075
753.6,0.0087
753.4,0.0084
753.2,0.0087
753.0,0.0092
752.8,0.0086
752.6,0.0078
752.4,0.0084
752.2,0.0088
752.0,0.0080
751.8,0.0083
751.6,0.0078
751.4,0.0084
751.2,0.0077
751.0,0.0087
750.8,0.0082
750.6,0.0086
750.4,0.0092
750.2,0.0082
750.0,0.0085
749.8,0.0085
749.6,0.0086
749.4,0.0084
749.2,0.0096
749.0,0.0088
748.8,0.0083
748.6,0.0081
748.4,0.0078
748.2,0.0087
748.0,0.0082
747.8,0.0090
747.6,0.0094
747.4,0.0090
747.2,0.0084
747.0,0.0086
746.8,0.0080
746.6,0.0087
746.4,0.0080
746.2,0.0086
746.0,0.0084
745.8,0.0084
745.6,0.0093
745.4,0.0087
745.2,0.0091
745.0,0.0092
744.8,0.0087
744.6,0.0090
744.4,0.0088
744.2,0.0082
744.0,0.0089
743.8,0.0080
743.6,0.0087
743.4,0.0082
743.2,0.0091
743.0,0.0088
742.8,0.0087
742.6,0.0086
742.4,0.0089
742.2,0.0089
742.0,0.0088
741.8,0.0086
741.6,0.0086
741.4,0.0090
741.2,0.0091
741.0,0.0087
740.8,0.0090
740.6,0.0088
740.4,0.0087
740.2,0.0089
740.0,0.0090
739.8,0.0095
739.6,0.0096
739.4,0.0086
739.2,0.0083
739.0,0.0090
738.8,0.0093
738.6,0.0085
738.4,0.0083
738.2,0.0093
738.0,0.0086
737.8,0.0093
737.6,0.0090
737.4,0.0090
737.2,0.0098
737.0,0.0082
736.8,0.0091
736.6,0.0093
736.4,0.0098
736.2,0.0088
736.0,0.0090
735.8,0.0096
735.6,0.0092
735.4,0.0086
735.2,0.0094
735.0,0.0089
734.8,0.0092
734.6,0.0093
734.4,0.0092
734.2,0.0099
734.0,0.0085
733.8,0.0090
733.6,0.0090
733.4,0.0093
733.2,0.0089
733.0,0.0092
732.8,0.0084
732.6,0.0088
732.4,0.0089
732.2,0.0095
732.0,0.0090
731.8,0.0096
731.6,0.0093
731.4,0.0090
731.2,0.0094
731.0,0.0089
730.8,0.0101
730.6,0.0082
730.4,0.0100
730.2,0.0088
730.0,0.0093
729.8,0.0092
729.6,0.0100
729.4,0.0092
729.2,0.0084
729.0,0.0100
728.8,0.0097
728.6,0.0097
728.4,0.0097
728.2,0.0092
728.0,0.0091
727.8,0.0091
727.6,0.0097
727.4,0.0092
727.2,0.0094
727.0,0.0089
726.8,0.0092
726.6,0.0097
726.4,0.0091
726.2,0.0100
726.0,0.0094
725.8,0.0098
725.6,0.0093
725.4,0.0094
725.2,0.0096
725.0,0.0098
724.8,0.0096
724.6,0.0090
724.4,0.0092
724.2,0.0095
724.0,0.0092
723.8,0.0100
723.6,0.0092
723.4,0.0090
723.2,0.0097
723.0,0.0101
722.8,0.0098
722.6,0.0096
722.4,0.0099
722.2,0.0095
722.0,0.0101
721.8,0.0096
721.6,0.0092
721.4,0.0098
721.2,0.0094
721.0,0.0095
720.8,0.0096
720.6,0.0099
720.4,0.0098
720.2,0.0099
720.0,0.0095
719.8,0.0099
719.6,0.0106
719.4,0.0098
719.2,0.0099
719.0,0.0101
718.8,0.0097
718.6,0.0100
718.4,0.0105
718.2,0.0093
718.0,0.0093
717.8,0.0102
717.6,0.0098
717.4,0.0098
717.2,0.0095
717.0,0.0102
716.8,0.0099
716.6,0.0101
716.4,0.0097
716.2,0.0097
716.0,0.0098
715.8,0.0098
715.6,0.0099
715.4,0.0102
715.2,0.0099
715.0,0.0102
714.8,0.0098
714.6,0.0102
714.4,0.0102
714.2,0.0099
714.0,0.0097
713.8,0.0103
713.6,0.0104
713.4,0.0099
713.2,0.0103
713.0,0.0094
712.8,0.0096
712.6,0.0102
712.4,0.0107
712.2,0.0104
712.0,0.0105
711.8,0.0101
711.6,0.0102
711.4,0.0099
711.2,0.0104
711.0,0.0102
710.8,0.0104
710.6,0.0111
710.4,0.0103
710.2,0.0105
710.0,0.0106
709.8,0.0098
709.6,0.0109
709.4,0.0107
709.2,0.0104
709.0,0.0105
708.8,0.0095
708.6,0.0101
708.4,0.0100
708.2,0.0100
708.0,0.0106
707.8,0.0104
707.6,0.0109
707.4,0.0107
707.2,0.0104
707.0,0.0103
706.8,0.0101
706.6,0.0102
706.4,0.0106
706.2,0.0109
706.0,0.0119
705.8,0.0100
705.6,0.0107
705.4,0.0101
705.2,0.0110
705.0,0.0109
704.8,0.0113
704.6,0.0106
704.4,0.0106
704.2,0.0107
704.0,0.0110
703.8,0.0114
703.6,0.0105
703.4,0.0107
703.2,0.0107
703.0,0.0109
702.8,0.0097
702.6,0.0105
702.4,0.0111
702.2,0.0112
702.0,0.0112
701.8,0.0110
701.6,0.0115
701.4,0.0110
701.2,0.0110
701.0,0.0110
700.8,0.0112
700.6,0.0113
700.4,0.0109
700.2,0.0115
700.0,0.0113
699.8,0.0111
699.6,0.0113
699.4,0.0115
699.2,0.0110
699.0,0.0111
698.8,0.0112
698.6,0.0118
698.4,0.0115
698.2,0.0112
698.0,0.0117
697.8,0.0110
697.6,0.0116
697.4,0.0116
697.2,0.0111
697.0,0.0116
696.8,0.0117
696.6,0.0114
696.4,0.0118
696.2,0.0113
696.0,0.0119
695.8,0.0110
695.6,0.0115
695.4,0.0115
695.2,0.0114
695.0,0.0112
694.8,0.0113
694.6,0.0120
694.4,0.0116
694.2,0.0116
694.0,0.0118
693.8,0.0119
693.6,0.0115
693.4,0.0119
693.2,0.0121
693.0,0.0121
692.8,0.0123
692.6,0.0118
692.4,0.0123
692.2,0.0123
692.0,0.0123
691.8,0.0121
691.6,0.0125
691.4,0.0123
691.2,0.0122
691.0,0.0122
690.8,0.0124
690.6,0.0121
690.4,0.0124
690.2,0.0126
690.0,0.0118
689.8,0.0125
689.6,0.0120
689.4,0.0124
689.2,0.0127
689.0,0.0122
688.8,0.0128
688.6,0.0129
688.4,0.0127
688.2,0.0125
688.0,0.0121
687.8,0.0125
687.6,0.0124
687.4,0.0125
687.2,0.0125
687.0,0.0118
686.8,0.0127
686.6,0.0122
686.4,0.0132
686.2,0.0130
686.0,0.0130
685.8,0.0123
685.6,0.0129
685.4,0.0127
685.2,0.0130
685.0,0.0130
684.8,0.0132
684.6,0.0126
684.4,0.0131
684.2,0.0137
684.0,0.0131
683.8,0.0129
683.6,0.0131
683.4,0.0128
683.2,0.0137
683.0,0.0138
682.8,0.0130
682.6,0.0129
682.4,0.0130
682.2,0.0128
682.0,0.0138
681.8,0.0133
681.6,0.0134
681.4,0.0132
681.2,0.0133
681.0,0.0133
680.8,0.0133
680.6,0.0127
680.4,0.0132
680.2,0.0134
680.0,0.0135
679.8,0.0133
679.6,0.0134
679.4,0.0137
679.2,0.0134
679.0,0.0137
678.8,0.0141
678.6,0.0137
678.4,0.0136
678.2,0.0134
678.0,0.0140
677.8,0.0145
677.6,0.0140
677.4,0.0144
677.2,0.0139
677.0,0.0143
676.8,0.0142
676.6,0.0140
676.4,0.0143
676.2,0.0144
676.0,0.0140
675.8,0.0143
675.6,0.0141
675.4,0.0146
675.2,0.0144
675.0,0.0143
674.8,0.0146
674.6,0.0143
674.4,0.0144
674.2,0.0147
674.0,0.0150
673.8,0.0144
673.6,0.0143
673.4,0.0149
673.2,0.0144
673.0,0.0146
672.8,0.0148
672.6,0.0148
672.4,0.0151
672.2,0.0149
672.0,0.0149
671.8,0.0151
671.6,0.0150
671.4,0.0151
671.2,0.0152
671.0,0.0148
670.8,0.0153
670.6,0.0153
670.4,0.0148
670.2,0.0155
670.0,0.0149
669.8,0.0150
669.6,0.0149
669.4,0.0153
669.2,0.0147
669.0,0.0153
668.8,0.0154
668.6,0.0154
668.4,0.0155
668.2,0.0148
668.0,0.0155
667.8,0.0155
667.6,0.0154
667.4,0.0159
667.2,0.0158
667.0,0.0154
666.8,0.0155
666.6,0.0153
666.4,0.0153
666.2,0.0152
666.0,0.0157
665.8,0.0156
665.6,0.0154
665.4,0.0154
665.2,0.0153
665.0,0.0153
664.8,0.0153
664.6,0.0154
664.4,0.0153
664.2,0.0156
664.0,0.0152
663.8,0.0155
663.6,0.0155
663.4,0.0155
663.2,0.0151
663.0,0.0152
662.8,0.0152
662.6,0.0150
662.4,0.0150
662.2,0.0152
662.0,0.0151
661.8,0.0154
661.6,0.0153
661.4,0.0149
661.2,0.0153
661.0,0.0152
660.8,0.0146
660.6,0.0154
660.4,0.0151
660.2,0.0151
660.0,0.0150
659.8,0.0149
659.6,0.0147
659.4,0.0145
659.2,0.0154
659.0,0.0144
658.8,0.0151
658.6,0.0143
658.4,0.0148
658.2,0.0149
658.0,0.0150
657.8,0.0146
657.6,0.0145
657.4,0.0144
657.2,0.0146
657.0,0.0147
656.8,0.0146
656.6,0.0150
656.4,0.0148
656.2,0.0147
656.0,0.0145
655.8,0.0144
655.6,0.0149
655.4,0.0142
655.2,0.0141
655.0,0.0145
654.8,0.0141
654.6,0.0141
654.4,0.0145
654.2,0.0146
654.0,0.0143
653.8,0.0145
653.6,0.0139
653.4,0.0141
653.2,0.0146
653.0,0.0144
652.8,0.0137
652.6,0.0141
652.4,0.0137
652.2,0.0143
652.0,0.0140
651.8,0.0137
651.6,0.0140
651.4,0.0139
651.2,0.0143
651.0,0.0146
650.8,0.0142
650.6,0.0141
650.4,0.0143
650.2,0.0144
650.0,0.0142
649.8,0.0139
649.6,0.0140
649.4,0.0138
649.2,0.0143
649.0,0.0134
648.8,0.0138
648.6,0.0142
648.4,0.0139
648.2,0.0140
648.0,0.0140
647.8,0.0137
647.6,0.0137
647.4,0.0138
647.2,0.0139
647.0,0.0139
646.8,0.0139
646.6,0.0134
646.4,0.0142
646.2,0.0136
646.0,0.0140
645.8,0.0139
645.6,0.0139
645.4,0.0139
645.2,0.0142
645.0,0.0141
644.8,0.0142
644.6,0.0142
644.4,0.0140
644.2,0.0141
644.0,0.0146
643.8,0.0139
643.6,0.0140
643.4,0.0142
643.2,0.0139
643.0,0.0139
642.8,0.0139
642.6,0.0139
642.4,0.0142
642.2,0.0140
642.0,0.0136
641.8,0.0142
641.6,0.0143
641.4,0.0139
641.2,0.0142
641.0,0.0139
640.8,0.0145
640.6,0.0140
640.4,0.0140
640.2,0.0140
640.0,0.0141
639.8,0.0139
639.6,0.0144
639.4,0.0148
639.2,0.0142
639.0,0.0143
638.8,0.0140
638.6,0.0145
638.4,0.0145
638.2,0.0140
638.0,0.0141
637.8,0.0140
637.6,0.0137
637.4,0.0143
637.2,0.0144
637.0,0.0140
636.8,0.0145
636.6,0.0146
636.4,0.0144
636.2,0.0146
636.0,0.0140
635.8,0.0145
635.6,0.0144
635.4,0.0145
635.2,0.0148
635.0,0.0147
634.8,0.0147
634.6,0.0149
634.4,0.0149
634.2,0.0148
634.0,0.0147
633.8,0.0150
633.6,0.0153
633.4,0.0148
633.2,0.0148
633.0,0.0147
632.8,0.0149
632.6,0.0145
632.4,0.0150
632.2,0.0145
632.0,0.0150
631.8,0.0149
631.6,0.0148
631.4,0.0152
631.2,0.0147
631.0,0.0149
630.8,0.0150
630.6,0.0150
630.4,0.0150
630.2,0.0151
630.0,0.0152
629.8,0.0149
629.6,0.0151
629.4,0.0157
629.2,0.0156
629.0,0.0153
628.8,0.0153
628.6,0.0152
628.4,0.0151
628.2,0.0154
628.0,0.0157
627.8,0.0155
627.6,0.0153
627.4,0.0155
627.2,0.0158
627.0,0.0153
626.8,0.0154
626.6,0.0153
626.4,0.0154
626.2,0.0152
626.0,0.0152
625.8,0.0156
625.6,0.0151
625.4,0.0154
625.2,0.0154
625.0,0.0153
624.8,0.0157
624.6,0.0159
624.4,0.0153
624.2,0.0156
624.0,0.0156
623.8,0.0158
623.6,0.0156
623.4,0.0157
623.2,0.0155
623.0,0.0158
622.8,0.0158
622.6,0.0153
622.4,0.0157
622.2,0.0153
622.0,0.0157
621.8,0.0162
621.6,0.0158
621.4,0.0158
621.2,0.0158
621.0,0.0160
620.8,0.0162
620.6,0.0160
620.4,0.0162
620.2,0.0157
620.0,0.0162
619.8,0.0157
619.6,0.0159
619.4,0.0160
619.2,0.0160
619.0,0.0160
618.8,0.0159
618.6,0.0157
618.4,0.0157
618.2,0.0158
618.0,0.0162
617.8,0.0159
617.6,0.0158
617.4,0.0159
617.2,0.0155
617.0,0.0160
616.8,0.0156
616.6,0.0157
616.4,0.0162
616.2,0.0161
616.0,0.0159
615.8,0.0157
615.6,0.0158
615.4,0.0160
615.2,0.0154
615.0,0.0157
614.8,0.0165
614.6,0.0161
614.4,0.0161
614.2,0.0158
614.0,0.0156
613.8,0.0151
613.6,0.0157
613.4,0.0157
613.2,0.0159
613.0,0.0152
612.8,0.0155
612.6,0.0153
612.4,0.0153
612.2,0.0159
612.0,0.0159
611.8,0.0154
611.6,0.0150
611.4,0.0153
611.2,0.0151
611.0,0.0153
610.8,0.0153
610.6,0.0156
610.4,0.0151
610.2,0.0155
610.0,0.0154
609.8,0.0149
609.6,0.0151
609.4,0.0149
609.2,0.0154
609.0,0.0153
608.8,0.0153
608.6,0.0152
608.4,0.0148
608.2,0.0151
608.0,0.0149
607.8,0.0146
607.6,0.0148
607.4,0.0150
607.2,0.0146
607.0,0.0148
606.8,0.0148
606.6,0.0145
606.4,0.0148
606.2,0.0149
606.0,0.0149
605.8,0.0145
605.6,0.0146
605.4,0.0148
605.2,0.0146
605.0,0.0148
604.8,0.0146
604.6,0.0145
604.4,0.0143
604.2,0.0143
604.0,0.0144
603.8,0.0143
603.6,0.0142
603.4,0.0142
603.2,0.0140
603.0,0.0142
602.8,0.0140
602.6,0.0143
602.4,0.0139
602.2,0.0138
602.0,0.0140
601.8,0.0142
601.6,0.0137
601.4,0.0136
601.2,0.0135
601.0,0.0138
600.8,0.0136
600.6,0.0135
600.4,0.0134
600.2,0.0136
600.0,0.0138
599.8,0.0137
599.6,0.0136
599.4,0.0135
599.2,0.0134
599.0,0.0133
598.8,0.0136
598.6,0.0134
598.4,0.0135
598.2,0.0135
598.0,0.0132
597.8,0.0133
597.6,0.0133
597.4,0.0133
597.2,0.0128
597.0,0.0130
596.8,0.0128
596.6,0.0131
596.4,0.0130
596.2,0.0129
596.0,0.0132
595.8,0.0129
595.6,0.0129
595.4,0.0128
595.2,0.0129
595.0,0.0130
594.8,0.0130
594.6,0.0124
594.4,0.0128
594.2,0.0127
594.0,0.0128
593.8,0.0127
593.6,0.0122
593.4,0.0123
593.2,0.0124
593.0,0.0121
592.8,0.0126
592.6,0.0125
592.4,0.0124
592.2,0.0126
592.0,0.0125
591.8,0.0122
591.6,0.0122
591.4,0.0123
591.2,0.0125
591.0,0.0123
590.8,0.0122
590.6,0.0126
590.4,0.0122
590.2,0.0125
590.0,0.0121
589.8,0.0123
589.6,0.0121
589.4,0.0122
589.2,0.0119
589.0,0.0115
588.8,0.0122
588.6,0.0123
588.4,0.0119
588.2,0.0118
588.0,0.0121
587.8,0.0123
587.6,0.0119
587.4,0.0119
587.2,0.0118
587.0,0.0117
586.8,0.0120
586.6,0.0120
586.4,0.0120
586.2,0.0116
586.0,0.0117
585.8,0.0115
585.6,0.0113
585.4,0.0114
585.2,0.0113
585.0,0.0116
584.8,0.0118
584.6,0.0114
584.4,0.0116
584.2,0.0115
584.0,0.0114
583.8,0.0112
583.6,0.0117
583.4,0.0116
583.2,0.0114
583.0,0.0114
582.8,0.0113
582.6,0.0115
582.4,0.0110
582.2,0.0111
582.0,0.0112
581.8,0.0110
581.6,0.0109
581.4,0.0112
581.2,0.0110
581.0,0.0111
580.8,0.0111
580.6,0.0110
580.4,0.0110
580.2,0.0109
580.0,0.0109