File: Figure1/UV-vis/Sample334.Sample.csv
Created as New Dataset,
nm,A
800.0,-0.0003
799.8,-0.0020
799.6,-0.0005
799.4,-0.0010
799.2,-0.0012
799.0,0.0000
798.8,-0.0023
798.6,-0.0015
798.4,-0.0008
798.2,-0.0012
798.0,-0.0005
797.8,-0.0010
797.6,-0.0027
797.4,-0.0018
797.2,-0.0006
797.0,-0.0008
796.8,-0.0016
796.6,-0.0010
796.4,-0.0010
796.2,-0.0024
796.0,-0.0017
795.8,-0.0017
795.6,-0.0011
795.4,-0.0025
795.2,-0.0011
795.0,-0.0011
794.8,-0.0017
794.6,-0.0002
794.4,-0.0015
794.2,-0.0015
794.0,-0.0019
793.8,-0.0009
793.6,-0.0013
793.4,-0.0020
793.2,-0.0009
793.0,-0.0021
792.8,-0.0019
792.6,-0.0018
792.4,-0.0021
792.2,-0.0010
792.0,-0.0017
791.8,-0.0014
791.6,-0.0014
791.4,-0.0021
791.2,-0.0012
791.0,-0.0007
790.8,-0.0016
790.6,-0.0013
790.4,-0.0017
790.2,-0.0009
790.0,-0.0014
789.8,-0.0022
789.6,-0.0023
789.4,-0.0013
789.2,-0.0017
789.0,-0.0007
788.8,-0.0016
788.6,-0.0023
788.4,-0.0020
788.2,-0.0021
788.0,-0.0017
787.8,-0.0016
787.6,-0.0016
787.4,-0.0007
787.2,-0.0011
787.0,-0.0012
786.8,-0.0014
786.6,-0.0022
786.4,-0.0013
786.2,-0.0020
786.0,-0.0022
785.8,-0.0018
785.6,-0.0018
785.4,-0.0019
785.2,-0.0020
785.0,-0.0026
784.8,-0.0007
784.6,-0.0021
784.4,-0.0011
784.2,-0.0011
784.0,-0.0013
783.8,-0.0016
783.6,-0.0013
783.4,-0.0014
783.2,-0.0018
783.0,-0.0012
782.8,-0.0021
782.6,-0.0018
782.4,-0.0018
782.2,-0.0020
782.0,-0.0014
781.8,-0.0005
781.6,-0.0021
781.4,-0.0022
781.2,-0.0017
781.0,-0.0024
780.8,-0.0024
780.6,-0.0011
780.4,-0.0019
780.2,-0.0021
780.0,-0.0018
779.8,-0.0015
779.6,-0.0019
779.4,-0.0015
779.2,-0.0015
779.0,-0.0019
778.8,-0.0019
778.6,-0.0017
778.4,-0.0021
778.2,-0.0016
778.0,-0.0014
777.8,-0.0019
777.6,-0.0009
777.4,-0.0009
777.2,-0.0012
777.0,-0.0007
776.8,-0.0022
776.6,-0.0005
776.4,-0.0017
776.2,-0.0014
776.0,-0.0024
775.8,-0.0006
775.6,-0.0030
775.4,-0.0017
775.2,-0.0010
775.0,-0.0015
774.8,-0.0021
774.6,-0.0002
774.4,-0.0018
774.2,-0.0018
774.0,-0.0020
773.8,-0.0013
773.6,-0.0013
773.4,-0.0008
773.2,-0.0008
773.0,-0.0015
772.8,-0.0015
772.6,-0.0011
772.4,-0.0013
772.2,-0.0018
772.0,-0.0016
771.8,-0.0015
771.6,-0.0020
771.4,-0.0014
771.2,-0.0024
771.0,-0.0016
770.8,-0.0016
770.6,-0.0013
770.4,-0.0022
770.2,-0.0014
770.0,0.0003
769.8,-0.0010
769.6,-0.0021
769.4,-0.0017
769.2,-0.0012
769.0,-0.0008
768.8,-0.0008
768.6,-0.0012
768.4,-0.0011
768.2,-0.0011
768.0,-0.0007
767.8,-0.0013
767.6,-0.0008
767.4,-0.0002
767.2,-0.0012
767.0,-0.0010
766.8,-0.0009
766.6,-0.0009
766.4,-0.0007
766.2,-0.0013
766.0,-0.0012
765.8,-0.0010
765.6,-0.0012
765.4,-0.0004
765.2,-0.0003
765.0,-0.0005
764.8,-0.0007
764.6,-0.0009
764.4,-0.0009
764.2,-0.0007
764.0,-0.0008
763.8,-0.0010
763.6,-0.0014
763.4,-0.0007
763.2,-0.0006
763.0,-0.0006
762.8,-0.0003
762.6,-0.0006
762.4,-0.0001
762.2,-0.0000
762.0,0.0002
761.8,0.0002
761.6,-0.0002
761.4,-0.0004
761.2,-0.0005
761.0,-0.0003
760.8,-0.0001
760.6,0.0000
760.4,-0.0005
760.2,-0.0008
760.0,0.0002
759.8,-0.0006
759.6,-0.0002
759.4,-0.0011
759.2,0.0001
759.0,-0.0006
758.8,0.0000
758.6,0.0005
758.4,-0.0005
758.2,0.0000
758.0,0.0002
757.8,0.0007
757.6,-0.0004
757.4,0.0000
757.2,0.0008
757.0,-0.0005
756.8,-0.0002
756.6,0.0014
756.4,0.0006
756.2,-0.0007
756.0,-0.0005
755.8,0.0001
755.6,0.0000
755.4,-0.0010
755.2,-0.0002
755.0,-0.0002
754.8,0.0006
754.6,0.0001
754.4,-0.0000
754.2,0.0002
754.0,0.0002
753.8,-0.0005
753.6,-0.0007
753.4,0.0007
753.2,0.0000
753.0,0.0002
752.8,0.0004
752.6,-0.0005
752.4,0.0001
752.2,0.0000
752.0,-0.0002
751.8,-0.0001
751.6,0.0000
751.4,-0.0004
751.2,-0.0004
751.0,0.0007
750.8,0.0006
750.6,0.0001
750.4,0.0001
750.2,-0.0005
750.0,-0.0000
749.8,0.0010
749.6,0.0001
749.4,0.0001
749.2,0.0002
749.0,0.0008
748.8,-0.0005
748.6,0.0004
748.4,0.0003
748.2,-0.0003
748.0,-0.0001
747.8,0.0007
747.6,0.0015
747.4,0.0008
747.2,0.0007
747.0,0.0006
746.8,0.0004
746.6,0.0006
746.4,-0.0004
746.2,0.0008
746.0,-0.0001
745.8,-0.0001
745.6,0.0005
745.4,0.0007
745.2,-0.0000
745.0,0.0002
744.8,-0.0002
744.6,0.0007
744.4,0.0000
744.2,0.0002
744.0,0.0001
743.8,-0.0001
743.6,0.0001
743.4,0.0003
743.2,0.0008
743.0,0.0003
742.8,-0.0002
742.6,0.0001
742.4,-0.0001
742.2,0.0010
742.0,0.0004
741.8,0.0005
741.6,0.0003
741.4,0.0004
741.2,0.0008
741.0,0.0009
740.8,0.0004
740.6,0.0008
740.4,0.0012
740.2,0.0008
740.0,0.0001
739.8,0.0005
739.6,0.0005
739.4,0.0003
739.2,-0.0001
739.0,0.0000
738.8,0.0005
738.6,0.0005
738.4,0.0008
738.2,0.0003
738.0,0.0007
737.8,0.0007
737.6,0.0007
737.4,-0.0003
737.2,0.0000
737.0,0.0001
736.8,0.0004
736.6,0.0006
736.4,0.0007
736.2,0.0002
736.0,0.0005
735.8,-0.0001
735.6,0.0007
735.4,-0.0000
735.2,0.0007
735.0,0.0000
734.8,0.0010
734.6,-0.0002
734.4,0.0005
734.2,0.0009
734.0,-0.0004
733.8,0.0006
733.6,0.0002
733.4,0.0011
733.2,-0.0007
733.0,-0.0003
732.8,-0.0003
732.6,0.0005
732.4,-0.0005
732.2,0.0003
732.0,0.0006
731.8,0.0010
731.6,0.0007
731.4,0.0007
731.2,0.0005
731.0,-0.0006
730.8,0.0005
730.6,-0.0008
730.4,0.0006
730.2,0.0002
730.0,-0.0003
729.8,0.0004
729.6,0.0005
729.4,0.0004
729.2,-0.0009
729.0,-0.0002
728.8,0.0003
728.6,0.0006
728.4,0.0006
728.2,0.0000
728.0,-0.0001
727.8,-0.0002
727.6,0.0002
727.4,0.0006
727.2,0.0002
727.0,0.0003
726.8,-0.0001
726.6,0.0002
726.4,0.0008
726.2,0.0001
726.0,0.0006
725.8,0.0006
725.6,-0.0000
725.4,0.0006
725.2,0.0004
725.0,0.0005
724.8,0.0002
724.6,0.0009
724.4,-0.0001
724.2,0.0009
724.0,0.0001
723.8,0.0006
723.6,0.0001
723.4,-0.0004
723.2,0.0005
723.0,0.0009
722.8,0.0003
722.6,0.0005
722.4,0.0003
722.2,-0.0003
722.0,0.0002
721.8,0.0006
721.6,0.0002
721.4,0.0002
721.2,0.0006
721.0,0.0006
720.8,0.0005
720.6,0.0008
720.4,0.0007
720.2,0.0004
720.0,0.0003
719.8,0.0009
719.6,0.0010
719.4,0.0008
719.2,0.0002
719.0,0.0009
718.8,0.0007
718.6,0.0012
718.4,0.0008
718.2,0.0009
718.0,0.0003
717.8,0.0007
717.6,0.0003
717.4,0.0005
717.2,0.0004
717.0,0.0012
716.8,0.0011
716.6,0.0012
716.4,0.0007
716.2,0.0007
716.0,0.0010
715.8,0.0008
715.6,0.0004
715.4,0.0015
715.2,0.0010
715.0,0.0012
714.8,0.0010
714.6,0.0012
714.4,0.0012
714.2,0.0015
714.0,0.0010
713.8,0.0011
713.6,0.0010
713.4,0.0012
713.2,0.0011
713.0,0.0014
712.8,0.0012
712.6,0.0011
712.4,0.0017
712.2,0.0017
712.0,0.0019
711.8,0.0013
711.6,0.0011
711.4,0.0014
711.2,0.0020
711.0,0.0021
710.8,0.0013
710.6,0.0022
710.4,0.0017
710.2,0.0019
710.0,0.0017
709.8,0.0023
709.6,0.0018
709.4,0.0019
709.2,0.0020
709.0,0.0027
708.8,0.0015
708.6,0.0022
708.4,0.0018
708.2,0.0013
708.0,0.0025
707.8,0.0014
707.6,0.0022
707.4,0.0020
707.2,0.0017
707.0,0.0025
706.8,0.0020
706.6,0.0020
706.4,0.0021
706.2,0.0024
706.0,0.0031
705.8,0.0014
705.6,0.0028
705.4,0.0026
705.2,0.0026
705.0,0.0026
704.8,0.0029
704.6,0.0017
704.4,0.0021
704.2,0.0024
704.0,0.0027
703.8,0.0029
703.6,0.0024
703.4,0.0023
703.2,0.0026
703.0,0.0025
702.8,0.0018
702.6,0.0019
702.4,0.0025
702.2,0.0029
702.0,0.0032
701.8,0.0027
701.6,0.0031
701.4,0.0027
701.2,0.0022
701.0,0.0025
700.8,0.0027
700.6,0.0031
700.4,0.0027
700.2,0.0026
700.0,0.0028
699.8,0.0027
699.6,0.0026
699.4,0.0027
699.2,0.0023
699.0,0.0028
698.8,0.0027
698.6,0.0026
698.4,0.0026
698.2,0.0024
698.0,0.0030
697.8,0.0025
697.6,0.0023
697.4,0.0031
697.2,0.0024
697.0,0.0026
696.8,0.0033
696.6,0.0027
696.4,0.0026
696.2,0.0024
696.0,0.0024
695.8,0.0026
695.6,0.0031
695.4,0.0029
695.2,0.0022
695.0,0.0027
694.8,0.0025
694.6,0.0025
694.4,0.0024
694.2,0.0022
694.0,0.0026
693.8,0.0027
693.6,0.0027
693.4,0.0029
693.2,0.0032
693.0,0.0030
692.8,0.0029
692.6,0.0028
692.4,0.0032
692.2,0.0027
692.0,0.0031
691.8,0.0028
691.6,0.0032
691.4,0.0027
691.2,0.0030
691.0,0.0033
690.8,0.0032
690.6,0.0032
690.4,0.0030
690.2,0.0039
690.0,0.0033
689.8,0.0035
689.6,0.0031
689.4,0.0042
689.2,0.0036
689.0,0.0031
688.8,0.0038
688.6,0.0035
688.4,0.0035
688.2,0.0042
688.0,0.0029
687.8,0.0029
687.6,0.0040
687.4,0.0034
687.2,0.0036
687.0,0.0029
686.8,0.0033
686.6,0.0035
686.4,0.0037
686.2,0.0041
686.0,0.0039
685.8,0.0035
685.6,0.0038
685.4,0.0039
685.2,0.0037
685.0,0.0035
684.8,0.0039
684.6,0.0037
684.4,0.0038
684.2,0.0044
684.0,0.0036
683.8,0.0038
683.6,0.0037
683.4,0.0038
683.2,0.0040
683.0,0.0046
682.8,0.0043
682.6,0.0039
682.4,0.0043
682.2,0.0032
682.0,0.0045
681.8,0.0037
681.6,0.0040
681.4,0.0036
681.2,0.0037
681.0,0.0039
680.8,0.0040
680.6,0.0036
680.4,0.0035
680.2,0.0036
680.0,0.0044
679.8,0.0042
679.6,0.0043
679.4,0.0042
679.2,0.0046
679.0,0.0044
678.8,0.0047
678.6,0.0039
678.4,0.0041
678.2,0.0044
678.0,0.0043
677.8,0.0046
677.6,0.0048
677.4,0.0048
677.2,0.0049
677.0,0.0043
676.8,0.0045
676.6,0.0045
676.4,0.0050
676.2,0.0047
676.0,0.0051
675.8,0.0048
675.6,0.0051
675.4,0.0048
675.2,0.0048
675.0,0.0045
674.8,0.0052
674.6,0.0051
674.4,0.0048
674.2,0.0050
674.0,0.0051
673.8,0.0053
673.6,0.0052
673.4,0.0050
673.2,0.0049
673.0,0.0055
672.8,0.0054
672.6,0.0053
672.4,0.0058
672.2,0.0055
672.0,0.0049
671.8,0.0056
671.6,0.0055
671.4,0.0057
671.2,0.0060
671.0,0.0055
670.8,0.0056
670.6,0.0059
670.4,0.0059
670.2,0.0061
670.0,0.0058
669.8,0.0058
669.6,0.0057
669.4,0.0058
669.2,0.0061
669.0,0.0061
668.8,0.0062
668.6,0.0060
668.4,0.0058
668.2,0.0055
668.0,0.0062
667.8,0.0063
667.6,0.0061
667.4,0.0065
667.2,0.0065
667.0,0.0059
666.8,0.0061
666.6,0.0064
666.4,0.0062
666.2,0.0064
666.0,0.0062
665.8,0.0064
665.6,0.0067
665.4,0.0066
665.2,0.0062
665.0,0.0068
664.8,0.0063
664.6,0.0060
664.4,0.0060
664.2,0.0068
664.0,0.0061
663.8,0.0062
663.6,0.0064
663.4,0.0066
663.2,0.0065
663.0,0.0067
662.8,0.0062
662.6,0.0064
662.4,0.0062
662.2,0.0066
662.0,0.0067
661.8,0.0061
661.6,0.0061
661.4,0.0063
661.2,0.0063
661.0,0.0064
660.8,0.0058
660.6,0.0066
660.4,0.0062
660.2,0.0059
660.0,0.0063
659.8,0.0067
659.6,0.0058
659.4,0.0058
659.2,0.0061
659.0,0.0057
658.8,0.0063
658.6,0.0063
658.4,0.0063
658.2,0.0062
658.0,0.0059
657.8,0.0064
657.6,0.0057
657.4,0.0056
657.2,0.0056
657.0,0.0056
656.8,0.0059
656.6,0.0059
656.4,0.0057
656.2,0.0059
656.0,0.0057
655.8,0.0057
655.6,0.0059
655.4,0.0057
655.2,0.0054
655.0,0.0057
654.8,0.0060
654.6,0.0055
654.4,0.0058
654.2,0.0056
654.0,0.0055
653.8,0.0056
653.6,0.0049
653.4,0.0054
653.2,0.0054
653.0,0.0054
652.8,0.0048
652.6,0.0048
652.4,0.0054
652.2,0.0056
652.0,0.0049
651.8,0.0049
651.6,0.0050
651.4,0.0054
651.2,0.0053
651.0,0.0054
650.8,0.0051
650.6,0.0054
650.4,0.0057
650.2,0.0053
650.0,0.0052
649.8,0.0047
649.6,0.0045
649.4,0.0044
649.2,0.0047
649.0,0.0045
648.8,0.0048
648.6,0.0048
648.4,0.0045
648.2,0.0049
648.0,0.0049
647.8,0.0050
647.6,0.0048
647.4,0.0043
647.2,0.0048
647.0,0.0048
646.8,0.0046
646.6,0.0043
646.4,0.0048
646.2,0.0043
646.0,0.0046
645.8,0.0045
645.6,0.0042
645.4,0.0044
645.2,0.0048
645.0,0.0046
644.8,0.0046
644.6,0.0046
644.4,0.0045
644.2,0.0047
644.0,0.0044
643.8,0.0040
643.6,0.0042
643.4,0.0041
643.2,0.0043
643.0,0.0043
642.8,0.0043
642.6,0.0039
642.4,0.0043
642.2,0.0040
642.0,0.0041
641.8,0.0045
641.6,0.0040
641.4,0.0041
641.2,0.0044
641.0,0.0042
640.8,0.0042
640.6,0.0041
640.4,0.0041
640.2,0.0041
640.0,0.0040
639.8,0.0038
639.6,0.0042
639.4,0.0043
639.2,0.0042
639.0,0.0043
638.8,0.0046
638.6,0.0045
638.4,0.0046
638.2,0.0037
638.0,0.0041
637.8,0.0041
637.6,0.0041
637.4,0.0043
637.2,0.0041
637.0,0.0042
636.8,0.0044
636.6,0.0043
636.4,0.0038
636.2,0.0045
636.0,0.0037
635.8,0.0040
635.6,0.0039
635.4,0.0038
635.2,0.0041
635.0,0.0042
634.8,0.0037
634.6,0.0041
634.4,0.0042
634.2,0.0040
634.0,0.0038
633.8,0.0041
633.6,0.0042
633.4,0.0038
633.2,0.0040
633.0,0.0038
632.8,0.0044
632.6,0.0039
632.4,0.0043
632.2,0.0036
632.0,0.0037
631.8,0.0037
631.6,0.0041
631.4,0.0042
631.2,0.0035
631.0,0.0036
630.8,0.0039
630.6,0.0040
630.4,0.0036
630.2,0.0039
630.0,0.0040
629.8,0.0037
629.6,0.0037
629.4,0.0038
629.2,0.0042
629.0,0.0038
628.8,0.0038
628.6,0.0039
628.4,0.0039
628.2,0.0033
628.0,0.0042
627.8,0.0042
627.6,0.0038
627.4,0.0036
627.2,0.0042
627.0,0.0035
626.8,0.0036
626.6,0.0035
626.4,0.0037
626.2,0.0038
626.0,0.0037
625.8,0.0039
625.6,0.0037
625.4,0.0038
625.2,0.0035
625.0,0.0032
624.8,0.0039
624.6,0.0039
624.4,0.0040
624.2,0.0034
624.0,0.0038
623.8,0.0038
623.6,0.0037
623.4,0.0037
623.2,0.0039
623.0,0.0036
622.8,0.0038
622.6,0.0032
622.4,0.0036
622.2,0.0033
622.0,0.0037
621.8,0.0038
621.6,0.0036
621.4,0.0035
621.2,0.0036
621.0,0.0036
620.8,0.0037
620.6,0.0035
620.4,0.0038
620.2,0.0036
620.0,0.0035
619.8,0.0037
619.6,0.0034
619.4,0.0038
619.2,0.0037
619.0,0.0036
618.8,0.0035
618.6,0.0035
618.4,0.0032
618.2,0.0033
618.0,0.0033
617.8,0.0032
617.6,0.0033
617.4,0.0031
617.2,0.0031
617.0,0.0033
616.8,0.0031
616.6,0.0029
616.4,0.0029
616.2,0.0033
616.0,0.0030
615.8,0.0028
615.6,0.0033
615.4,0.0036
615.2,0.0030
615.0,0.0028
614.8,0.0031
614.6,0.0028
614.4,0.0034
614.2,0.0034
614.0,0.0032
613.8,0.0031
613.6,0.0027
613.4,0.0034
613.2,0.0034
613.0,0.0029
612.8,0.0029
612.6,0.0028
612.4,0.0021
612.2,0.0032
612.0,0.0029
611.8,0.0027
611.6,0.0024
611.4,0.0029
611.2,0.0024
611.0,0.0028
610.8,0.0023
610.6,0.0028
610.4,0.0024
610.2,0.0029
610.0,0.0025
609.8,0.0023
609.6,0.0023
609.4,0.0020
609.2,0.0024
609.0,0.0025
608.8,0.0024
608.6,0.0019
608.4,0.0022
608.2,0.0024
608.0,0.0023
607.8,0.0015
607.6,0.0020
607.4,0.0018
607.2,0.0016
607.0,0.0020
606.8,0.0019
606.6,0.0014
606.4,0.0019
606.2,0.0017
606.0,0.0020
605.8,0.0015
605.6,0.0015
605.4,0.0020
605.2,0.0019
605.0,0.0015
604.8,0.0014
604.6,0.0016
604.4,0.0014
604.2,0.0014
604.0,0.0010
603.8,0.0015
603.6,0.0015
603.4,0.0010
603.2,0.0008
603.0,0.0011
602.8,0.0006
602.6,0.0012
602.4,0.0012
602.2,0.0007
602.0,0.0007
601.8,0.0008
601.6,0.0009
601.4,0.0006
601.2,0.0005
601.0,0.0003
600.8,0.0006
600.6,0.0008
600.4,0.0004
600.2,0.0004
600.0,0.0003
599.8,0.0003
599.6,0.0002
599.4,0.0001
599.2,0.0002
599.0,0.0002
598.8,0.0002
598.6,0.0003
598.4,0.0002
598.2,0.0003
598.0,-0.0000
597.8,-0.0003
597.6,0.0000
597.4,-0.0001
597.2,-0.0002
597.0,-0.0003
596.8,-0.0006
596.6,-0.0003
596.4,-0.0004
596.2,-0.0004
596.0,-0.0006
595.8,-0.0006
595.6,-0.0006
595.4,-0.0004
595.2,-0.0008
595.0,-0.0007
594.8,-0.0004
594.6,-0.0006
594.4,-0.0007
594.2,-0.0012
594.0,-0.0011
593.8,-0.0009
593.6,-0.0011
593.4,-0.0016
593.2,-0.0009
593.0,-0.0013
592.8,-0.0010
592.6,-0.0010
592.4,-0.0013
592.2,-0.0012
592.0,-0.0010
591.8,-0.0016
591.6,-0.0017
591.4,-0.0017
591.2,-0.0016
591.0,-0.0021
590.8,-0.0018
590.6,-0.0017
590.4,-0.0018
590.2,-0.0016
590.0,-0.0017
589.8,-0.0019
589.6,-0.0021
589.4,-0.0017
589.2,-0.0023
589.0,-0.0023
588.8,-0.0023
588.6,-0.0021
588.4,-0.0023
588.2,-0.0029
588.0,-0.0019
587.8,-0.0022
587.6,-0.0026
587.4,-0.0026
587.2,-0.0027
587.0,-0.0031
586.8,-0.0029
586.6,-0.0026
586.4,-0.0026
586.2,-0.0030
586.0,-0.0030
585.8,-0.0035
585.6,-0.0031
585.4,-0.0035
585.2,-0.0032
585.0,-0.0028
584.8,-0.0030
584.6,-0.0032
584.4,-0.0031
584.2,-0.0034
584.0,-0.0037
583.8,-0.0038
583.6,-0.0037
583.4,-0.0033
583.2,-0.0035
583.0,-0.0037
582.8,-0.0036
582.6,-0.0037
582.4,-0.0040
582.2,-0.0040
582.0,-0.0036
581.8,-0.0040
581.6,-0.0042
581.4,-0.0039
581.2,-0.0041
581.0,-0.0038
580.8,-0.0038
580.6,-0.0042
580.4,-0.0043
580.2,-0.0042
580.0,-0.0040