File: Figure1/UV-vis/Sample336.Sample.csv
Created as New Dataset,
nm,A
800.0,0.0005
799.8,0.0002
799.6,-0.0001
799.4,-0.0001
799.2,-0.0001
799.0,-0.0004
798.8,-0.0003
798.6,0.0001
798.4,-0.0002
798.2,-0.0002
798.0,-0.0002
797.8,0.0008
797.6,-0.0008
797.4,-0.0000
797.2,0.0008
797.0,0.0006
796.8,-0.0000
796.6,-0.0003
796.4,-0.0001
796.2,-0.0002
796.0,0.0004
795.8,0.0002
795.6,0.0000
795.4,-0.0005
795.2,0.0010
795.0,0.0004
794.8,-0.0004
794.6,0.0002
794.4,-0.0006
794.2,-0.0002
794.0,-0.0002
793.8,-0.0001
793.6,0.0007
793.4,-0.0009
793.2,-0.0006
793.0,-0.0008
792.8,-0.0002
792.6,-0.0002
792.4,-0.0003
792.2,0.0006
792.0,0.0005
791.8,-0.0000
791.6,-0.0006
791.4,-0.0013
791.2,0.0001
791.0,0.0001
790.8,-0.0001
790.6,0.0004
790.4,-0.0014
790.2,0.0009
790.0,-0.0001
789.8,-0.0008
789.6,-0.0006
789.4,0.0005
789.2,-0.0004
789.0,0.0007
788.8,-0.0003
788.6,-0.0008
788.4,-0.0002
788.2,-0.0005
788.0,-0.0005
787.8,-0.0007
787.6,-0.0007
787.4,0.0003
787.2,-0.0002
787.0,0.0001
786.8,0.0000
786.6,-0.0007
786.4,-0.0001
786.2,-0.0001
786.0,-0.0006
785.8,-0.0007
785.6,-0.0008
785.4,-0.0006
785.2,-0.0007
785.0,-0.0016
784.8,-0.0006
784.6,-0.0007
784.4,0.0002
784.2,-0.0004
784.0,0.0003
783.8,-0.0004
783.6,-0.0007
783.4,0.0002
783.2,0.0006
783.0,0.0007
782.8,-0.0001
782.6,-0.0002
782.4,-0.0001
782.2,0.0000
782.0,0.0003
781.8,0.0003
781.6,-0.0015
781.4,-0.0009
781.2,-0.0006
781.0,-0.0007
780.8,-0.0005
780.6,0.0003
780.4,-0.0000
780.2,-0.0016
780.0,-0.0005
779.8,0.0002
779.6,-0.0008
779.4,0.0006
779.2,0.0006
779.0,-0.0002
778.8,-0.0000
778.6,-0.0012
778.4,-0.0015
778.2,0.0004
778.0,0.0004
777.8,-0.0010
777.6,-0.0000
777.4,0.0004
777.2,-0.0000
777.0,-0.0002
776.8,0.0003
776.6,0.0011
776.4,0.0006
776.2,-0.0006
776.0,-0.0000
775.8,0.0010
775.6,-0.0009
775.4,-0.0005
775.2,0.0002
775.0,-0.0006
774.8,0.0001
774.6,0.0004
774.4,-0.0004
774.2,-0.0000
774.0,-0.0004
773.8,0.0005
773.6,0.0002
773.4,0.0003
773.2,0.0005
773.0,-0.0004
772.8,-0.0003
772.6,-0.0008
772.4,-0.0001
772.2,-0.0002
772.0,0.0004
771.8,-0.0001
771.6,0.0000
771.4,-0.0006
771.2,-0.0002
771.0,0.0010
770.8,0.0002
770.6,0.0003
770.4,-0.0010
770.2,0.0004
770.0,0.0010
769.8,-0.0002
769.6,0.0002
769.4,-0.0001
769.2,0.0002
769.0,-0.0000
768.8,0.0004
768.6,-0.0001
768.4,-0.0005
768.2,-0.0002
768.0,0.0010
767.8,-0.0002
767.6,0.0006
767.4,0.0012
767.2,0.0003
767.0,0.0002
766.8,0.0006
766.6,0.0002
766.4,0.0003
766.2,0.0002
766.0,-0.0003
765.8,0.0002
765.6,0.0001
765.4,0.0006
765.2,0.0001
765.0,0.0010
764.8,0.0006
764.6,0.0003
764.4,0.0007
764.2,-0.0004
764.0,0.0007
763.8,0.0003
763.6,-0.0001
763.4,0.0007
763.2,0.0009
763.0,0.0003
762.8,0.0005
762.6,0.0014
762.4,0.0013
762.2,0.0011
762.0,0.0011
761.8,0.0007
761.6,0.0006
761.4,0.0005
761.2,0.0006
761.0,0.0008
760.8,0.0009
760.6,0.0004
760.4,0.0005
760.2,0.0003
760.0,0.0012
759.8,0.0006
759.6,0.0009
759.4,0.0006
759.2,0.0013
759.0,0.0005
758.8,0.0012
758.6,0.0005
758.4,0.0010
758.2,0.0012
758.0,0.0020
757.8,0.0028
757.6,0.0007
757.4,0.0015
757.2,0.0017
757.0,0.0018
756.8,0.0014
756.6,0.0013
756.4,0.0011
756.2,0.0017
756.0,0.0009
755.8,0.0015
755.6,0.0002
755.4,0.0007
755.2,0.0007
755.0,0.0005
754.8,0.0015
754.6,0.0026
754.4,0.0005
754.2,0.0013
754.0,0.0018
753.8,0.0011
753.6,0.0009
753.4,0.0022
753.2,0.0011
753.0,0.0014
752.8,0.0022
752.6,0.0015
752.4,0.0014
752.2,0.0017
752.0,0.0005
751.8,0.0014
751.6,0.0017
751.4,0.0008
751.2,0.0013
751.0,0.0014
750.8,0.0007
750.6,0.0024
750.4,0.0019
750.2,0.0016
750.0,0.0017
749.8,0.0018
749.6,0.0013
749.4,0.0016
749.2,0.0016
749.0,0.0015
748.8,0.0017
748.6,0.0011
748.4,0.0016
748.2,0.0017
748.0,0.0010
747.8,0.0016
747.6,0.0026
747.4,0.0017
747.2,0.0021
747.0,0.0016
746.8,0.0013
746.6,0.0016
746.4,0.0016
746.2,0.0020
746.0,0.0019
745.8,0.0014
745.6,0.0019
745.4,0.0010
745.2,0.0017
745.0,0.0015
744.8,0.0016
744.6,0.0018
744.4,0.0019
744.2,0.0013
744.0,0.0016
743.8,0.0011
743.6,0.0017
743.4,0.0018
743.2,0.0023
743.0,0.0016
742.8,0.0012
742.6,0.0012
742.4,0.0020
742.2,0.0026
742.0,0.0012
741.8,0.0013
741.6,0.0014
741.4,0.0018
741.2,0.0019
741.0,0.0017
740.8,0.0020
740.6,0.0016
740.4,0.0017
740.2,0.0018
740.0,0.0012
739.8,0.0018
739.6,0.0020
739.4,0.0017
739.2,0.0009
739.0,0.0018
738.8,0.0020
738.6,0.0014
738.4,0.0012
738.2,0.0019
738.0,0.0012
737.8,0.0019
737.6,0.0015
737.4,0.0013
737.2,0.0018
737.0,0.0014
736.8,0.0019
736.6,0.0018
736.4,0.0021
736.2,0.0014
736.0,0.0015
735.8,0.0016
735.6,0.0017
735.4,0.0012
735.2,0.0018
735.0,0.0018
734.8,0.0015
734.6,0.0009
734.4,0.0011
734.2,0.0017
734.0,0.0005
733.8,0.0016
733.6,0.0017
733.4,0.0016
733.2,0.0010
733.0,0.0012
732.8,0.0007
732.6,0.0018
732.4,0.0017
732.2,0.0019
732.0,0.0008
731.8,0.0019
731.6,0.0019
731.4,0.0019
731.2,0.0021
731.0,0.0008
730.8,0.0012
730.6,0.0008
730.4,0.0017
730.2,0.0014
730.0,0.0018
729.8,0.0014
729.6,0.0018
729.4,0.0014
729.2,0.0013
729.0,0.0017
728.8,0.0014
728.6,0.0021
728.4,0.0019
728.2,0.0017
728.0,0.0018
727.8,0.0013
727.6,0.0010
727.4,0.0015
727.2,0.0010
727.0,0.0015
726.8,0.0014
726.6,0.0020
726.4,0.0018
726.2,0.0014
726.0,0.0012
725.8,0.0019
725.6,0.0014
725.4,0.0015
725.2,0.0022
725.0,0.0020
724.8,0.0015
724.6,0.0013
724.4,0.0012
724.2,0.0013
724.0,0.0009
723.8,0.0014
723.6,0.0015
723.4,0.0009
723.2,0.0021
723.0,0.0016
722.8,0.0017
722.6,0.0014
722.4,0.0019
722.2,0.0020
722.0,0.0021
721.8,0.0013
721.6,0.0014
721.4,0.0017
721.2,0.0020
721.0,0.0021
720.8,0.0017
720.6,0.0017
720.4,0.0014
720.2,0.0014
720.0,0.0016
719.8,0.0014
719.6,0.0017
719.4,0.0017
719.2,0.0013
719.0,0.0020
718.8,0.0019
718.6,0.0017
718.4,0.0023
718.2,0.0016
718.0,0.0021
717.8,0.0020
717.6,0.0018
717.4,0.0019
717.2,0.0019
717.0,0.0023
716.8,0.0023
716.6,0.0021
716.4,0.0018
716.2,0.0018
716.0,0.0019
715.8,0.0021
715.6,0.0018
715.4,0.0024
715.2,0.0024
715.0,0.0025
714.8,0.0022
714.6,0.0023
714.4,0.0023
714.2,0.0025
714.0,0.0022
713.8,0.0024
713.6,0.0022
713.4,0.0026
713.2,0.0023
713.0,0.0019
712.8,0.0027
712.6,0.0024
712.4,0.0029
712.2,0.0032
712.0,0.0029
711.8,0.0028
711.6,0.0028
711.4,0.0031
711.2,0.0033
711.0,0.0030
710.8,0.0028
710.6,0.0034
710.4,0.0029
710.2,0.0032
710.0,0.0029
709.8,0.0029
709.6,0.0033
709.4,0.0026
709.2,0.0030
709.0,0.0035
708.8,0.0032
708.6,0.0027
708.4,0.0034
708.2,0.0024
708.0,0.0028
707.8,0.0027
707.6,0.0031
707.4,0.0035
707.2,0.0032
707.0,0.0037
706.8,0.0028
706.6,0.0036
706.4,0.0033
706.2,0.0035
706.0,0.0045
705.8,0.0027
705.6,0.0036
705.4,0.0033
705.2,0.0043
705.0,0.0036
704.8,0.0039
704.6,0.0036
704.4,0.0035
704.2,0.0029
704.0,0.0035
703.8,0.0044
703.6,0.0037
703.4,0.0036
703.2,0.0039
703.0,0.0034
702.8,0.0033
702.6,0.0036
702.4,0.0038
702.2,0.0039
702.0,0.0036
701.8,0.0035
701.6,0.0041
701.4,0.0040
701.2,0.0041
701.0,0.0040
700.8,0.0035
700.6,0.0042
700.4,0.0035
700.2,0.0043
700.0,0.0039
699.8,0.0038
699.6,0.0038
699.4,0.0036
699.2,0.0035
699.0,0.0036
698.8,0.0040
698.6,0.0042
698.4,0.0037
698.2,0.0035
698.0,0.0038
697.8,0.0033
697.6,0.0037
697.4,0.0042
697.2,0.0033
697.0,0.0039
696.8,0.0044
696.6,0.0039
696.4,0.0037
696.2,0.0035
696.0,0.0042
695.8,0.0039
695.6,0.0043
695.4,0.0039
695.2,0.0037
695.0,0.0038
694.8,0.0035
694.6,0.0044
694.4,0.0038
694.2,0.0038
694.0,0.0039
693.8,0.0039
693.6,0.0039
693.4,0.0039
693.2,0.0044
693.0,0.0040
692.8,0.0039
692.6,0.0037
692.4,0.0043
692.2,0.0040
692.0,0.0041
691.8,0.0040
691.6,0.0047
691.4,0.0042
691.2,0.0041
691.0,0.0039
690.8,0.0044
690.6,0.0045
690.4,0.0041
690.2,0.0046
690.0,0.0044
689.8,0.0046
689.6,0.0039
689.4,0.0043
689.2,0.0050
689.0,0.0039
688.8,0.0050
688.6,0.0042
688.4,0.0045
688.2,0.0049
688.0,0.0045
687.8,0.0043
687.6,0.0043
687.4,0.0046
687.2,0.0045
687.0,0.0042
686.8,0.0046
686.6,0.0044
686.4,0.0052
686.2,0.0050
686.0,0.0047
685.8,0.0048
685.6,0.0046
685.4,0.0049
685.2,0.0050
685.0,0.0044
684.8,0.0049
684.6,0.0047
684.4,0.0056
684.2,0.0051
684.0,0.0053
683.8,0.0051
683.6,0.0051
683.4,0.0048
683.2,0.0052
683.0,0.0059
682.8,0.0048
682.6,0.0047
682.4,0.0047
682.2,0.0050
682.0,0.0058
681.8,0.0050
681.6,0.0057
681.4,0.0047
681.2,0.0052
681.0,0.0054
680.8,0.0053
680.6,0.0047
680.4,0.0052
680.2,0.0054
680.0,0.0051
679.8,0.0051
679.6,0.0054
679.4,0.0053
679.2,0.0051
679.0,0.0051
678.8,0.0057
678.6,0.0055
678.4,0.0062
678.2,0.0051
678.0,0.0057
677.8,0.0056
677.6,0.0059
677.4,0.0060
677.2,0.0055
677.0,0.0061
676.8,0.0057
676.6,0.0055
676.4,0.0059
676.2,0.0062
676.0,0.0062
675.8,0.0058
675.6,0.0062
675.4,0.0061
675.2,0.0063
675.0,0.0059
674.8,0.0061
674.6,0.0060
674.4,0.0066
674.2,0.0060
674.0,0.0063
673.8,0.0063
673.6,0.0062
673.4,0.0063
673.2,0.0063
673.0,0.0064
672.8,0.0065
672.6,0.0065
672.4,0.0069
672.2,0.0068
672.0,0.0069
671.8,0.0070
671.6,0.0066
671.4,0.0067
671.2,0.0070
671.0,0.0068
670.8,0.0070
670.6,0.0067
670.4,0.0069
670.2,0.0070
670.0,0.0066
669.8,0.0069
669.6,0.0066
669.4,0.0072
669.2,0.0069
669.0,0.0072
668.8,0.0071
668.6,0.0071
668.4,0.0069
668.2,0.0071
668.0,0.0076
667.8,0.0073
667.6,0.0074
667.4,0.0073
667.2,0.0075
667.0,0.0071
666.8,0.0075
666.6,0.0072
666.4,0.0075
666.2,0.0078
666.0,0.0073
665.8,0.0075
665.6,0.0076
665.4,0.0075
665.2,0.0074
665.0,0.0075
664.8,0.0078
664.6,0.0075
664.4,0.0073
664.2,0.0075
664.0,0.0076
663.8,0.0073
663.6,0.0072
663.4,0.0079
663.2,0.0073
663.0,0.0080
662.8,0.0073
662.6,0.0071
662.4,0.0071
662.2,0.0079
662.0,0.0079
661.8,0.0074
661.6,0.0079
661.4,0.0069
661.2,0.0079
661.0,0.0077
660.8,0.0069
660.6,0.0073
660.4,0.0071
660.2,0.0074
660.0,0.0076
659.8,0.0078
659.6,0.0078
659.4,0.0071
659.2,0.0077
659.0,0.0073
658.8,0.0075
658.6,0.0072
658.4,0.0075
658.2,0.0074
658.0,0.0074
657.8,0.0074
657.6,0.0069
657.4,0.0068
657.2,0.0072
657.0,0.0067
656.8,0.0067
656.6,0.0071
656.4,0.0072
656.2,0.0072
656.0,0.0072
655.8,0.0072
655.6,0.0069
655.4,0.0070
655.2,0.0066
655.0,0.0070
654.8,0.0069
654.6,0.0067
654.4,0.0069
654.2,0.0072
654.0,0.0066
653.8,0.0068
653.6,0.0063
653.4,0.0063
653.2,0.0069
653.0,0.0065
652.8,0.0060
652.6,0.0063
652.4,0.0061
652.2,0.0066
652.0,0.0064
651.8,0.0064
651.6,0.0062
651.4,0.0066
651.2,0.0067
651.0,0.0065
650.8,0.0063
650.6,0.0061
650.4,0.0065
650.2,0.0065
650.0,0.0063
649.8,0.0064
649.6,0.0062
649.4,0.0060
649.2,0.0061
649.0,0.0055
648.8,0.0057
648.6,0.0059
648.4,0.0058
648.2,0.0061
648.0,0.0063
647.8,0.0065
647.6,0.0060
647.4,0.0056
647.2,0.0056
647.0,0.0059
646.8,0.0056
646.6,0.0056
646.4,0.0057
646.2,0.0056
646.0,0.0062
645.8,0.0058
645.6,0.0055
645.4,0.0058
645.2,0.0060
645.0,0.0057
644.8,0.0062
644.6,0.0058
644.4,0.0056
644.2,0.0057
644.0,0.0059
643.8,0.0055
643.6,0.0056
643.4,0.0055
643.2,0.0057
643.0,0.0054
642.8,0.0054
642.6,0.0051
642.4,0.0057
642.2,0.0053
642.0,0.0054
641.8,0.0057
641.6,0.0052
641.4,0.0054
641.2,0.0059
641.0,0.0051
640.8,0.0059
640.6,0.0053
640.4,0.0053
640.2,0.0061
640.0,0.0052
639.8,0.0056
639.6,0.0050
639.4,0.0054
639.2,0.0056
639.0,0.0050
638.8,0.0055
638.6,0.0055
638.4,0.0051
638.2,0.0048
638.0,0.0047
637.8,0.0057
637.6,0.0046
637.4,0.0057
637.2,0.0053
637.0,0.0056
636.8,0.0055
636.6,0.0055
636.4,0.0048
636.2,0.0053
636.0,0.0049
635.8,0.0050
635.6,0.0055
635.4,0.0049
635.2,0.0054
635.0,0.0053
634.8,0.0048
634.6,0.0052
634.4,0.0048
634.2,0.0050
634.0,0.0049
633.8,0.0053
633.6,0.0051
633.4,0.0051
633.2,0.0051
633.0,0.0053
632.8,0.0052
632.6,0.0047
632.4,0.0054
632.2,0.0049
632.0,0.0050
631.8,0.0051
631.6,0.0051
631.4,0.0051
631.2,0.0051
631.0,0.0051
630.8,0.0048
630.6,0.0051
630.4,0.0046
630.2,0.0048
630.0,0.0049
629.8,0.0051
629.6,0.0048
629.4,0.0051
629.2,0.0053
629.0,0.0048
628.8,0.0051
628.6,0.0050
628.4,0.0052
628.2,0.0052
628.0,0.0052
627.8,0.0052
627.6,0.0046
627.4,0.0049
627.2,0.0054
627.0,0.0050
626.8,0.0051
626.6,0.0048
626.4,0.0052
626.2,0.0051
626.0,0.0045
625.8,0.0050
625.6,0.0047
625.4,0.0048
625.2,0.0050
625.0,0.0045
624.8,0.0050
624.6,0.0049
624.4,0.0047
624.2,0.0049
624.0,0.0051
623.8,0.0049
623.6,0.0051
623.4,0.0048
623.2,0.0048
623.0,0.0047
622.8,0.0049
622.6,0.0042
622.4,0.0045
622.2,0.0045
622.0,0.0048
621.8,0.0050
621.6,0.0049
621.4,0.0046
621.2,0.0049
621.0,0.0049
620.8,0.0051
620.6,0.0048
620.4,0.0053
620.2,0.0049
620.0,0.0048
619.8,0.0048
619.6,0.0048
619.4,0.0048
619.2,0.0046
619.0,0.0045
618.8,0.0045
618.6,0.0046
618.4,0.0042
618.2,0.0039
618.0,0.0045
617.8,0.0045
617.6,0.0047
617.4,0.0044
617.2,0.0044
617.0,0.0049
616.8,0.0040
616.6,0.0045
616.4,0.0042
616.2,0.0044
616.0,0.0044
615.8,0.0044
615.6,0.0046
615.4,0.0049
615.2,0.0044
615.0,0.0045
614.8,0.0047
614.6,0.0040
614.4,0.0048
614.2,0.0043
614.0,0.0043
613.8,0.0040
613.6,0.0039
613.4,0.0043
613.2,0.0045
613.0,0.0037
612.8,0.0040
612.6,0.0040
612.4,0.0040
612.2,0.0041
612.0,0.0040
611.8,0.0038
611.6,0.0038
611.4,0.0041
611.2,0.0038
611.0,0.0034
610.8,0.0042
610.6,0.0040
610.4,0.0036
610.2,0.0040
610.0,0.0040
609.8,0.0036
609.6,0.0037
609.4,0.0037
609.2,0.0037
609.0,0.0036
608.8,0.0035
608.6,0.0032
608.4,0.0034
608.2,0.0034
608.0,0.0036
607.8,0.0031
607.6,0.0030
607.4,0.0028
607.2,0.0030
607.0,0.0031
606.8,0.0031
606.6,0.0029
606.4,0.0028
606.2,0.0031
606.0,0.0031
605.8,0.0027
605.6,0.0029
605.4,0.0029
605.2,0.0028
605.0,0.0033
604.8,0.0027
604.6,0.0022
604.4,0.0021
604.2,0.0024
604.0,0.0026
603.8,0.0025
603.6,0.0025
603.4,0.0025
603.2,0.0023
603.0,0.0026
602.8,0.0020
602.6,0.0027
602.4,0.0024
602.2,0.0020
602.0,0.0020
601.8,0.0020
601.6,0.0020
601.4,0.0018
601.2,0.0014
601.0,0.0020
600.8,0.0018
600.6,0.0017
600.4,0.0015
600.2,0.0016
600.0,0.0019
599.8,0.0017
599.6,0.0012
599.4,0.0012
599.2,0.0015
599.0,0.0010
598.8,0.0009
598.6,0.0012
598.4,0.0013
598.2,0.0013
598.0,0.0011
597.8,0.0012
597.6,0.0012
597.4,0.0015
597.2,0.0009
597.0,0.0008
596.8,0.0008
596.6,0.0007
596.4,0.0005
596.2,0.0005
596.0,0.0005
595.8,0.0005
595.6,0.0006
595.4,0.0007
595.2,0.0002
595.0,0.0005
594.8,0.0002
594.6,0.0005
594.4,0.0007
594.2,0.0002
594.0,0.0003
593.8,0.0005
593.6,-0.0003
593.4,-0.0000
593.2,-0.0003
593.0,-0.0003
592.8,-0.0001
592.6,-0.0002
592.4,-0.0002
592.2,-0.0004
592.0,-0.0003
591.8,-0.0004
591.6,-0.0002
591.4,-0.0007
591.2,-0.0007
591.0,-0.0010
590.8,-0.0008
590.6,-0.0004
590.4,-0.0004
590.2,-0.0008
590.0,-0.0005
589.8,-0.0011
589.6,-0.0009
589.4,-0.0010
589.2,-0.0014
589.0,-0.0012
588.8,-0.0011
588.6,-0.0011
588.4,-0.0009
588.2,-0.0016
588.0,-0.0010
587.8,-0.0011
587.6,-0.0010
587.4,-0.0019
587.2,-0.0013
587.0,-0.0013
586.8,-0.0018
586.6,-0.0016
586.4,-0.0014
586.2,-0.0018
586.0,-0.0017
585.8,-0.0019
585.6,-0.0020
585.4,-0.0024
585.2,-0.0024
585.0,-0.0019
584.8,-0.0019
584.6,-0.0021
584.4,-0.0017
584.2,-0.0022
584.0,-0.0020
583.8,-0.0021
583.6,-0.0021
583.4,-0.0021
583.2,-0.0023
583.0,-0.0024
582.8,-0.0026
582.6,-0.0025
582.4,-0.0028
582.2,-0.0027
582.0,-0.0027
581.8,-0.0027
581.6,-0.0030
581.4,-0.0030
581.2,-0.0028
581.0,-0.0030
580.8,-0.0029
580.6,-0.0028
580.4,-0.0031
580.2,-0.0030
580.0,-0.0030