File: Figure1/UV-vis/Sample342.Sample.csv
Created as New Dataset,
nm,A
800.0,0.0045
799.8,0.0042
799.6,0.0035
799.4,0.0038
799.2,0.0038
799.0,0.0037
798.8,0.0038
798.6,0.0038
798.4,0.0050
798.2,0.0043
798.0,0.0032
797.8,0.0052
797.6,0.0042
797.4,0.0040
797.2,0.0050
797.0,0.0046
796.8,0.0039
796.6,0.0045
796.4,0.0048
796.2,0.0037
796.0,0.0044
795.8,0.0050
795.6,0.0038
795.4,0.0032
795.2,0.0045
795.0,0.0043
794.8,0.0039
794.6,0.0042
794.4,0.0044
794.2,0.0043
794.0,0.0037
793.8,0.0048
793.6,0.0042
793.4,0.0025
793.2,0.0042
793.0,0.0038
792.8,0.0034
792.6,0.0038
792.4,0.0037
792.2,0.0051
792.0,0.0041
791.8,0.0042
791.6,0.0040
791.4,0.0035
791.2,0.0046
791.0,0.0044
790.8,0.0046
790.6,0.0053
790.4,0.0037
790.2,0.0052
790.0,0.0040
789.8,0.0041
789.6,0.0033
789.4,0.0043
789.2,0.0037
789.0,0.0050
788.8,0.0036
788.6,0.0045
788.4,0.0043
788.2,0.0038
788.0,0.0046
787.8,0.0043
787.6,0.0040
787.4,0.0047
787.2,0.0043
787.0,0.0043
786.8,0.0047
786.6,0.0039
786.4,0.0044
786.2,0.0041
786.0,0.0040
785.8,0.0041
785.6,0.0041
785.4,0.0044
785.2,0.0038
785.0,0.0034
784.8,0.0050
784.6,0.0037
784.4,0.0044
784.2,0.0041
784.0,0.0046
783.8,0.0044
783.6,0.0035
783.4,0.0043
783.2,0.0045
783.0,0.0046
782.8,0.0045
782.6,0.0045
782.4,0.0043
782.2,0.0049
782.0,0.0053
781.8,0.0048
781.6,0.0032
781.4,0.0039
781.2,0.0033
781.0,0.0035
780.8,0.0043
780.6,0.0049
780.4,0.0045
780.2,0.0043
780.0,0.0044
779.8,0.0043
779.6,0.0034
779.4,0.0043
779.2,0.0048
779.0,0.0043
778.8,0.0050
778.6,0.0032
778.4,0.0039
778.2,0.0046
778.0,0.0039
777.8,0.0041
777.6,0.0047
777.4,0.0053
777.2,0.0043
777.0,0.0050
776.8,0.0041
776.6,0.0053
776.4,0.0043
776.2,0.0032
776.0,0.0041
775.8,0.0058
775.6,0.0038
775.4,0.0046
775.2,0.0055
775.0,0.0038
774.8,0.0038
774.6,0.0056
774.4,0.0040
774.2,0.0049
774.0,0.0050
773.8,0.0047
773.6,0.0040
773.4,0.0042
773.2,0.0054
773.0,0.0037
772.8,0.0051
772.6,0.0044
772.4,0.0046
772.2,0.0043
772.0,0.0046
771.8,0.0047
771.6,0.0044
771.4,0.0039
771.2,0.0041
771.0,0.0044
770.8,0.0048
770.6,0.0046
770.4,0.0043
770.2,0.0044
770.0,0.0052
769.8,0.0050
769.6,0.0038
769.4,0.0058
769.2,0.0043
769.0,0.0054
768.8,0.0057
768.6,0.0046
768.4,0.0040
768.2,0.0050
768.0,0.0055
767.8,0.0046
767.6,0.0050
767.4,0.0052
767.2,0.0046
767.0,0.0033
766.8,0.0046
766.6,0.0044
766.4,0.0049
766.2,0.0047
766.0,0.0044
765.8,0.0052
765.6,0.0049
765.4,0.0054
765.2,0.0049
765.0,0.0046
764.8,0.0050
764.6,0.0044
764.4,0.0047
764.2,0.0042
764.0,0.0044
763.8,0.0051
763.6,0.0044
763.4,0.0051
763.2,0.0044
763.0,0.0050
762.8,0.0050
762.6,0.0051
762.4,0.0056
762.2,0.0054
762.0,0.0053
761.8,0.0045
761.6,0.0050
761.4,0.0054
761.2,0.0049
761.0,0.0054
760.8,0.0049
760.6,0.0055
760.4,0.0050
760.2,0.0044
760.0,0.0053
759.8,0.0052
759.6,0.0052
759.4,0.0050
759.2,0.0045
759.0,0.0044
758.8,0.0048
758.6,0.0045
758.4,0.0054
758.2,0.0052
758.0,0.0055
757.8,0.0058
757.6,0.0047
757.4,0.0054
757.2,0.0053
757.0,0.0047
756.8,0.0052
756.6,0.0057
756.4,0.0046
756.2,0.0059
756.0,0.0052
755.8,0.0054
755.6,0.0058
755.4,0.0049
755.2,0.0052
755.0,0.0048
754.8,0.0052
754.6,0.0053
754.4,0.0045
754.2,0.0057
754.0,0.0052
753.8,0.0044
753.6,0.0052
753.4,0.0062
753.2,0.0052
753.0,0.0053
752.8,0.0058
752.6,0.0055
752.4,0.0057
752.2,0.0050
752.0,0.0047
751.8,0.0046
751.6,0.0048
751.4,0.0053
751.2,0.0050
751.0,0.0052
750.8,0.0051
750.6,0.0051
750.4,0.0064
750.2,0.0042
750.0,0.0054
749.8,0.0057
749.6,0.0055
749.4,0.0056
749.2,0.0060
749.0,0.0047
748.8,0.0049
748.6,0.0050
748.4,0.0050
748.2,0.0055
748.0,0.0054
747.8,0.0060
747.6,0.0065
747.4,0.0058
747.2,0.0052
747.0,0.0056
746.8,0.0055
746.6,0.0052
746.4,0.0048
746.2,0.0057
746.0,0.0054
745.8,0.0053
745.6,0.0059
745.4,0.0054
745.2,0.0051
745.0,0.0054
744.8,0.0049
744.6,0.0055
744.4,0.0055
744.2,0.0050
744.0,0.0050
743.8,0.0057
743.6,0.0054
743.4,0.0053
743.2,0.0057
743.0,0.0053
742.8,0.0045
742.6,0.0050
742.4,0.0057
742.2,0.0062
742.0,0.0052
741.8,0.0051
741.6,0.0056
741.4,0.0057
741.2,0.0060
741.0,0.0056
740.8,0.0051
740.6,0.0058
740.4,0.0058
740.2,0.0061
740.0,0.0053
739.8,0.0058
739.6,0.0061
739.4,0.0054
739.2,0.0056
739.0,0.0055
738.8,0.0062
738.6,0.0053
738.4,0.0051
738.2,0.0058
738.0,0.0056
737.8,0.0055
737.6,0.0054
737.4,0.0060
737.2,0.0055
737.0,0.0059
736.8,0.0054
736.6,0.0060
736.4,0.0059
736.2,0.0055
736.0,0.0056
735.8,0.0064
735.6,0.0061
735.4,0.0055
735.2,0.0058
735.0,0.0056
734.8,0.0059
734.6,0.0057
734.4,0.0068
734.2,0.0061
734.0,0.0055
733.8,0.0055
733.6,0.0056
733.4,0.0059
733.2,0.0054
733.0,0.0058
732.8,0.0053
732.6,0.0059
732.4,0.0055
732.2,0.0058
732.0,0.0053
731.8,0.0066
731.6,0.0061
731.4,0.0059
731.2,0.0059
731.0,0.0054
730.8,0.0057
730.6,0.0049
730.4,0.0060
730.2,0.0056
730.0,0.0063
729.8,0.0060
729.6,0.0062
729.4,0.0055
729.2,0.0054
729.0,0.0061
728.8,0.0059
728.6,0.0060
728.4,0.0062
728.2,0.0056
728.0,0.0058
727.8,0.0049
727.6,0.0064
727.4,0.0055
727.2,0.0059
727.0,0.0056
726.8,0.0054
726.6,0.0061
726.4,0.0059
726.2,0.0061
726.0,0.0062
725.8,0.0069
725.6,0.0059
725.4,0.0058
725.2,0.0066
725.0,0.0063
724.8,0.0057
724.6,0.0054
724.4,0.0057
724.2,0.0067
724.0,0.0056
723.8,0.0061
723.6,0.0060
723.4,0.0054
723.2,0.0060
723.0,0.0063
722.8,0.0061
722.6,0.0062
722.4,0.0061
722.2,0.0061
722.0,0.0066
721.8,0.0064
721.6,0.0062
721.4,0.0058
721.2,0.0060
721.0,0.0065
720.8,0.0061
720.6,0.0062
720.4,0.0062
720.2,0.0061
720.0,0.0059
719.8,0.0062
719.6,0.0072
719.4,0.0069
719.2,0.0065
719.0,0.0065
718.8,0.0065
718.6,0.0066
718.4,0.0066
718.2,0.0058
718.0,0.0060
717.8,0.0064
717.6,0.0062
717.4,0.0057
717.2,0.0058
717.0,0.0069
716.8,0.0067
716.6,0.0059
716.4,0.0059
716.2,0.0062
716.0,0.0061
715.8,0.0065
715.6,0.0065
715.4,0.0066
715.2,0.0063
715.0,0.0066
714.8,0.0062
714.6,0.0060
714.4,0.0064
714.2,0.0064
714.0,0.0067
713.8,0.0058
713.6,0.0063
713.4,0.0066
713.2,0.0065
713.0,0.0060
712.8,0.0064
712.6,0.0057
712.4,0.0071
712.2,0.0065
712.0,0.0067
711.8,0.0068
711.6,0.0064
711.4,0.0063
711.2,0.0071
711.0,0.0066
710.8,0.0070
710.6,0.0070
710.4,0.0066
710.2,0.0066
710.0,0.0061
709.8,0.0064
709.6,0.0065
709.4,0.0066
709.2,0.0070
709.0,0.0072
708.8,0.0062
708.6,0.0064
708.4,0.0062
708.2,0.0070
708.0,0.0068
707.8,0.0064
707.6,0.0072
707.4,0.0071
707.2,0.0069
707.0,0.0064
706.8,0.0061
706.6,0.0065
706.4,0.0067
706.2,0.0067
706.0,0.0065
705.8,0.0058
705.6,0.0069
705.4,0.0069
705.2,0.0070
705.0,0.0071
704.8,0.0073
704.6,0.0068
704.4,0.0068
704.2,0.0070
704.0,0.0067
703.8,0.0070
703.6,0.0064
703.4,0.0069
703.2,0.0067
703.0,0.0069
702.8,0.0064
702.6,0.0071
702.4,0.0072
702.2,0.0074
702.0,0.0068
701.8,0.0071
701.6,0.0075
701.4,0.0073
701.2,0.0068
701.0,0.0072
700.8,0.0066
700.6,0.0075
700.4,0.0065
700.2,0.0075
700.0,0.0071
699.8,0.0072
699.6,0.0070
699.4,0.0068
699.2,0.0066
699.0,0.0069
698.8,0.0072
698.6,0.0071
698.4,0.0071
698.2,0.0072
698.0,0.0074
697.8,0.0070
697.6,0.0067
697.4,0.0073
697.2,0.0069
697.0,0.0074
696.8,0.0075
696.6,0.0073
696.4,0.0074
696.2,0.0067
696.0,0.0073
695.8,0.0072
695.6,0.0076
695.4,0.0072
695.2,0.0069
695.0,0.0071
694.8,0.0074
694.6,0.0073
694.4,0.0070
694.2,0.0072
694.0,0.0075
693.8,0.0077
693.6,0.0071
693.4,0.0071
693.2,0.0078
693.0,0.0074
692.8,0.0069
692.6,0.0073
692.4,0.0082
692.2,0.0074
692.0,0.0074
691.8,0.0079
691.6,0.0081
691.4,0.0079
691.2,0.0076
691.0,0.0074
690.8,0.0082
690.6,0.0083
690.4,0.0074
690.2,0.0086
690.0,0.0082
689.8,0.0080
689.6,0.0076
689.4,0.0081
689.2,0.0085
689.0,0.0078
688.8,0.0083
688.6,0.0079
688.4,0.0085
688.2,0.0085
688.0,0.0076
687.8,0.0073
687.6,0.0085
687.4,0.0080
687.2,0.0080
687.0,0.0074
686.8,0.0080
686.6,0.0075
686.4,0.0079
686.2,0.0088
686.0,0.0083
685.8,0.0077
685.6,0.0081
685.4,0.0077
685.2,0.0082
685.0,0.0081
684.8,0.0082
684.6,0.0078
684.4,0.0084
684.2,0.0086
684.0,0.0088
683.8,0.0081
683.6,0.0086
683.4,0.0078
683.2,0.0082
683.0,0.0091
682.8,0.0082
682.6,0.0084
682.4,0.0084
682.2,0.0078
682.0,0.0080
681.8,0.0084
681.6,0.0087
681.4,0.0080
681.2,0.0085
681.0,0.0087
680.8,0.0087
680.6,0.0077
680.4,0.0088
680.2,0.0088
680.0,0.0082
679.8,0.0086
679.6,0.0085
679.4,0.0089
679.2,0.0087
679.0,0.0088
678.8,0.0089
678.6,0.0089
678.4,0.0090
678.2,0.0085
678.0,0.0089
677.8,0.0091
677.6,0.0086
677.4,0.0089
677.2,0.0091
677.0,0.0088
676.8,0.0088
676.6,0.0091
676.4,0.0087
676.2,0.0091
676.0,0.0091
675.8,0.0095
675.6,0.0094
675.4,0.0086
675.2,0.0089
675.0,0.0087
674.8,0.0091
674.6,0.0088
674.4,0.0086
674.2,0.0094
674.0,0.0092
673.8,0.0085
673.6,0.0091
673.4,0.0090
673.2,0.0089
673.0,0.0092
672.8,0.0089
672.6,0.0091
672.4,0.0094
672.2,0.0093
672.0,0.0090
671.8,0.0093
671.6,0.0092
671.4,0.0097
671.2,0.0092
671.0,0.0097
670.8,0.0094
670.6,0.0096
670.4,0.0092
670.2,0.0098
670.0,0.0093
669.8,0.0098
669.6,0.0090
669.4,0.0096
669.2,0.0098
669.0,0.0099
668.8,0.0096
668.6,0.0094
668.4,0.0094
668.2,0.0091
668.0,0.0100
667.8,0.0096
667.6,0.0096
667.4,0.0100
667.2,0.0099
667.0,0.0094
666.8,0.0096
666.6,0.0094
666.4,0.0096
666.2,0.0098
666.0,0.0099
665.8,0.0096
665.6,0.0099
665.4,0.0101
665.2,0.0095
665.0,0.0098
664.8,0.0093
664.6,0.0096
664.4,0.0097
664.2,0.0102
664.0,0.0096
663.8,0.0096
663.6,0.0096
663.4,0.0098
663.2,0.0092
663.0,0.0095
662.8,0.0096
662.6,0.0093
662.4,0.0093
662.2,0.0094
662.0,0.0094
661.8,0.0097
661.6,0.0098
661.4,0.0096
661.2,0.0097
661.0,0.0098
660.8,0.0090
660.6,0.0094
660.4,0.0090
660.2,0.0094
660.0,0.0098
659.8,0.0098
659.6,0.0094
659.4,0.0095
659.2,0.0097
659.0,0.0086
658.8,0.0094
658.6,0.0090
658.4,0.0091
658.2,0.0091
658.0,0.0089
657.8,0.0095
657.6,0.0089
657.4,0.0087
657.2,0.0090
657.0,0.0087
656.8,0.0090
656.6,0.0093
656.4,0.0091
656.2,0.0089
656.0,0.0088
655.8,0.0093
655.6,0.0091
655.4,0.0086
655.2,0.0086
655.0,0.0093
654.8,0.0095
654.6,0.0088
654.4,0.0089
654.2,0.0094
654.0,0.0090
653.8,0.0089
653.6,0.0085
653.4,0.0090
653.2,0.0089
653.0,0.0089
652.8,0.0088
652.6,0.0087
652.4,0.0085
652.2,0.0090
652.0,0.0088
651.8,0.0088
651.6,0.0084
651.4,0.0087
651.2,0.0089
651.0,0.0090
650.8,0.0086
650.6,0.0088
650.4,0.0088
650.2,0.0090
650.0,0.0090
649.8,0.0086
649.6,0.0086
649.4,0.0083
649.2,0.0087
649.0,0.0084
648.8,0.0083
648.6,0.0087
648.4,0.0083
648.2,0.0084
648.0,0.0087
647.8,0.0083
647.6,0.0086
647.4,0.0084
647.2,0.0085
647.0,0.0083
646.8,0.0085
646.6,0.0082
646.4,0.0089
646.2,0.0079
646.0,0.0082
645.8,0.0083
645.6,0.0083
645.4,0.0082
645.2,0.0087
645.0,0.0088
644.8,0.0085
644.6,0.0084
644.4,0.0083
644.2,0.0083
644.0,0.0082
643.8,0.0084
643.6,0.0081
643.4,0.0084
643.2,0.0082
643.0,0.0085
642.8,0.0086
642.6,0.0077
642.4,0.0085
642.2,0.0086
642.0,0.0079
641.8,0.0083
641.6,0.0082
641.4,0.0081
641.2,0.0082
641.0,0.0083
640.8,0.0086
640.6,0.0082
640.4,0.0085
640.2,0.0084
640.0,0.0080
639.8,0.0084
639.6,0.0080
639.4,0.0083
639.2,0.0079
639.0,0.0082
638.8,0.0081
638.6,0.0085
638.4,0.0080
638.2,0.0077
638.0,0.0082
637.8,0.0083
637.6,0.0079
637.4,0.0079
637.2,0.0086
637.0,0.0082
636.8,0.0085
636.6,0.0086
636.4,0.0076
636.2,0.0084
636.0,0.0079
635.8,0.0082
635.6,0.0081
635.4,0.0083
635.2,0.0082
635.0,0.0083
634.8,0.0083
634.6,0.0083
634.4,0.0081
634.2,0.0084
634.0,0.0082
633.8,0.0085
633.6,0.0082
633.4,0.0081
633.2,0.0080
633.0,0.0082
632.8,0.0085
632.6,0.0080
632.4,0.0084
632.2,0.0080
632.0,0.0083
631.8,0.0084
631.6,0.0082
631.4,0.0085
631.2,0.0079
631.0,0.0082
630.8,0.0085
630.6,0.0085
630.4,0.0080
630.2,0.0078
630.0,0.0082
629.8,0.0081
629.6,0.0079
629.4,0.0082
629.2,0.0083
629.0,0.0081
628.8,0.0082
628.6,0.0083
628.4,0.0086
628.2,0.0083
628.0,0.0085
627.8,0.0085
627.6,0.0081
627.4,0.0081
627.2,0.0088
627.0,0.0083
626.8,0.0084
626.6,0.0082
626.4,0.0085
626.2,0.0081
626.0,0.0083
625.8,0.0083
625.6,0.0081
625.4,0.0083
625.2,0.0083
625.0,0.0080
624.8,0.0083
624.6,0.0083
624.4,0.0082
624.2,0.0080
624.0,0.0081
623.8,0.0084
623.6,0.0081
623.4,0.0085
623.2,0.0081
623.0,0.0083
622.8,0.0088
622.6,0.0079
622.4,0.0082
622.2,0.0079
622.0,0.0084
621.8,0.0084
621.6,0.0084
621.4,0.0084
621.2,0.0082
621.0,0.0083
620.8,0.0084
620.6,0.0081
620.4,0.0083
620.2,0.0080
620.0,0.0085
619.8,0.0081
619.6,0.0084
619.4,0.0085
619.2,0.0083
619.0,0.0080
618.8,0.0082
618.6,0.0077
618.4,0.0078
618.2,0.0077
618.0,0.0080
617.8,0.0078
617.6,0.0080
617.4,0.0080
617.2,0.0080
617.0,0.0082
616.8,0.0079
616.6,0.0081
616.4,0.0081
616.2,0.0081
616.0,0.0078
615.8,0.0076
615.6,0.0080
615.4,0.0081
615.2,0.0078
615.0,0.0082
614.8,0.0081
614.6,0.0082
614.4,0.0087
614.2,0.0082
614.0,0.0081
613.8,0.0074
613.6,0.0078
613.4,0.0076
613.2,0.0081
613.0,0.0075
612.8,0.0075
612.6,0.0080
612.4,0.0076
612.2,0.0079
612.0,0.0075
611.8,0.0081
611.6,0.0075
611.4,0.0079
611.2,0.0076
611.0,0.0073
610.8,0.0075
610.6,0.0077
610.4,0.0073
610.2,0.0079
610.0,0.0077
609.8,0.0071
609.6,0.0073
609.4,0.0072
609.2,0.0076
609.0,0.0075
608.8,0.0079
608.6,0.0074
608.4,0.0075
608.2,0.0075
608.0,0.0076
607.8,0.0071
607.6,0.0071
607.4,0.0072
607.2,0.0069
607.0,0.0072
606.8,0.0069
606.6,0.0071
606.4,0.0070
606.2,0.0068
606.0,0.0069
605.8,0.0069
605.6,0.0066
605.4,0.0069
605.2,0.0071
605.0,0.0071
604.8,0.0069
604.6,0.0068
604.4,0.0066
604.2,0.0068
604.0,0.0066
603.8,0.0067
603.6,0.0067
603.4,0.0068
603.2,0.0063
603.0,0.0070
602.8,0.0065
602.6,0.0068
602.4,0.0064
602.2,0.0066
602.0,0.0065
601.8,0.0067
601.6,0.0064
601.4,0.0063
601.2,0.0061
601.0,0.0062
600.8,0.0061
600.6,0.0060
600.4,0.0061
600.2,0.0062
600.0,0.0062
599.8,0.0061
599.6,0.0060
599.4,0.0057
599.2,0.0064
599.0,0.0059
598.8,0.0059
598.6,0.0061
598.4,0.0059
598.2,0.0061
598.0,0.0057
597.8,0.0055
597.6,0.0058
597.4,0.0057
597.2,0.0055
597.0,0.0061
596.8,0.0056
596.6,0.0056
596.4,0.0055
596.2,0.0055
596.0,0.0055
595.8,0.0057
595.6,0.0055
595.4,0.0056
595.2,0.0053
595.0,0.0057
594.8,0.0056
594.6,0.0052
594.4,0.0052
594.2,0.0053
594.0,0.0052
593.8,0.0053
593.6,0.0054
593.4,0.0050
593.2,0.0049
593.0,0.0048
592.8,0.0049
592.6,0.0051
592.4,0.0052
592.2,0.0050
592.0,0.0052
591.8,0.0045
591.6,0.0050
591.4,0.0046
591.2,0.0047
591.0,0.0044
590.8,0.0045
590.6,0.0046
590.4,0.0045
590.2,0.0048
590.0,0.0050
589.8,0.0043
589.6,0.0047
589.4,0.0050
589.2,0.0042
589.0,0.0046
588.8,0.0047
588.6,0.0043
588.4,0.0041
588.2,0.0041
588.0,0.0044
587.8,0.0045
587.6,0.0046
587.4,0.0039
587.2,0.0049
587.0,0.0044
586.8,0.0041
586.6,0.0041
586.4,0.0040
586.2,0.0043
586.0,0.0038
585.8,0.0039
585.6,0.0038
585.4,0.0037
585.2,0.0039
585.0,0.0038
584.8,0.0042
584.6,0.0041
584.4,0.0043
584.2,0.0036
584.0,0.0037
583.8,0.0035
583.6,0.0039
583.4,0.0040
583.2,0.0036
583.0,0.0037
582.8,0.0033
582.6,0.0036
582.4,0.0032
582.2,0.0033
582.0,0.0035
581.8,0.0032
581.6,0.0033
581.4,0.0034
581.2,0.0030
581.0,0.0033
580.8,0.0034
580.6,0.0033
580.4,0.0031
580.2,0.0032
580.0,0.0033