File: Figure1/UV-vis/Sample335.Sample.csv
Created as New Dataset,
nm,A
800.0,-0.0006
799.8,0.0005
799.6,-0.0004
799.4,-0.0014
799.2,0.0000
799.0,-0.0006
798.8,-0.0003
798.6,-0.0008
798.4,-0.0008
798.2,-0.0008
798.0,-0.0012
797.8,-0.0001
797.6,-0.0012
797.4,-0.0005
797.2,0.0003
797.0,-0.0005
796.8,-0.0008
796.6,-0.0004
796.4,-0.0000
796.2,-0.0009
796.0,-0.0009
795.8,-0.0006
795.6,-0.0002
795.4,-0.0016
795.2,0.0001
795.0,-0.0010
794.8,-0.0010
794.6,-0.0001
794.4,-0.0004
794.2,-0.0003
794.0,-0.0006
793.8,-0.0005
793.6,-0.0004
793.4,-0.0019
793.2,-0.0010
793.0,-0.0009
792.8,-0.0011
792.6,-0.0005
792.4,-0.0006
792.2,-0.0004
792.0,-0.0004
791.8,-0.0010
791.6,-0.0011
791.4,-0.0013
791.2,-0.0010
791.0,-0.0005
790.8,-0.0011
790.6,-0.0000
790.4,-0.0015
790.2,0.0004
790.0,-0.0001
789.8,-0.0007
789.6,-0.0014
789.4,-0.0001
789.2,-0.0009
789.0,0.0000
788.8,-0.0009
788.6,-0.0016
788.4,-0.0012
788.2,-0.0012
788.0,-0.0006
787.8,-0.0010
787.6,-0.0009
787.4,-0.0004
787.2,-0.0007
787.0,-0.0005
786.8,-0.0003
786.6,-0.0016
786.4,-0.0002
786.2,-0.0004
786.0,-0.0014
785.8,-0.0013
785.6,-0.0007
785.4,-0.0015
785.2,-0.0011
785.0,-0.0016
784.8,-0.0008
784.6,-0.0013
784.4,-0.0003
784.2,0.0001
784.0,-0.0006
783.8,0.0001
783.6,-0.0009
783.4,-0.0010
783.2,-0.0004
783.0,0.0001
782.8,-0.0010
782.6,-0.0008
782.4,-0.0006
782.2,-0.0011
782.0,-0.0000
781.8,0.0000
781.6,-0.0018
781.4,-0.0007
781.2,-0.0010
781.0,-0.0008
780.8,-0.0014
780.6,-0.0006
780.4,-0.0014
780.2,-0.0017
780.0,-0.0011
779.8,-0.0007
779.6,-0.0009
779.4,-0.0012
779.2,-0.0008
779.0,-0.0005
778.8,-0.0011
778.6,-0.0010
778.4,-0.0013
778.2,-0.0009
778.0,-0.0009
777.8,-0.0007
777.6,-0.0005
777.4,-0.0006
777.2,-0.0007
777.0,-0.0007
776.8,-0.0010
776.6,0.0006
776.4,-0.0003
776.2,-0.0015
776.0,-0.0021
775.8,-0.0002
775.6,-0.0020
775.4,-0.0013
775.2,-0.0002
775.0,-0.0006
774.8,-0.0010
774.6,-0.0001
774.4,-0.0014
774.2,-0.0005
774.0,-0.0006
773.8,0.0000
773.6,-0.0013
773.4,-0.0012
773.2,-0.0008
773.0,-0.0005
772.8,-0.0005
772.6,-0.0012
772.4,-0.0009
772.2,-0.0006
772.0,-0.0012
771.8,-0.0004
771.6,-0.0013
771.4,-0.0013
771.2,-0.0017
771.0,-0.0006
770.8,-0.0007
770.6,-0.0009
770.4,-0.0019
770.2,-0.0007
770.0,0.0005
769.8,-0.0002
769.6,-0.0005
769.4,0.0000
769.2,-0.0004
769.0,0.0003
768.8,-0.0004
768.6,-0.0009
768.4,-0.0006
768.2,-0.0009
768.0,-0.0005
767.8,-0.0013
767.6,-0.0008
767.4,0.0005
767.2,0.0003
767.0,-0.0011
766.8,-0.0002
766.6,-0.0004
766.4,0.0001
766.2,-0.0004
766.0,-0.0008
765.8,0.0003
765.6,-0.0003
765.4,-0.0002
765.2,0.0001
765.0,-0.0002
764.8,0.0000
764.6,-0.0007
764.4,-0.0002
764.2,-0.0005
764.0,0.0002
763.8,0.0003
763.6,-0.0004
763.4,-0.0002
763.2,0.0006
763.0,0.0000
762.8,0.0003
762.6,0.0002
762.4,0.0005
762.2,0.0004
762.0,0.0003
761.8,0.0005
761.6,-0.0002
761.4,-0.0003
761.2,0.0003
761.0,0.0002
760.8,0.0009
760.6,0.0009
760.4,-0.0003
760.2,-0.0001
760.0,0.0006
759.8,0.0002
759.6,-0.0001
759.4,-0.0000
759.2,0.0001
759.0,-0.0002
758.8,0.0007
758.6,0.0006
758.4,0.0012
758.2,0.0008
758.0,0.0010
757.8,0.0017
757.6,-0.0000
757.4,0.0007
757.2,0.0012
757.0,0.0007
756.8,0.0000
756.6,0.0009
756.4,0.0000
756.2,0.0014
756.0,-0.0002
755.8,0.0005
755.6,0.0009
755.4,0.0003
755.2,0.0006
755.0,0.0010
754.8,0.0011
754.6,0.0021
754.4,-0.0000
754.2,0.0014
754.0,0.0013
753.8,0.0002
753.6,-0.0000
753.4,0.0016
753.2,0.0004
753.0,0.0003
752.8,0.0008
752.6,0.0007
752.4,0.0009
752.2,0.0003
752.0,0.0006
751.8,0.0007
751.6,0.0007
751.4,0.0000
751.2,0.0005
751.0,0.0015
750.8,0.0006
750.6,0.0006
750.4,0.0018
750.2,0.0003
750.0,0.0009
749.8,0.0009
749.6,0.0009
749.4,0.0010
749.2,0.0018
749.0,0.0009
748.8,0.0001
748.6,0.0007
748.4,0.0009
748.2,0.0013
748.0,0.0002
747.8,0.0017
747.6,0.0017
747.4,0.0014
747.2,0.0008
747.0,0.0010
746.8,0.0007
746.6,0.0012
746.4,-0.0000
746.2,0.0011
746.0,0.0007
745.8,0.0008
745.6,0.0017
745.4,0.0010
745.2,0.0011
745.0,0.0017
744.8,0.0005
744.6,0.0009
744.4,0.0007
744.2,0.0011
744.0,0.0012
743.8,0.0009
743.6,0.0016
743.4,0.0015
743.2,0.0015
743.0,0.0012
742.8,0.0007
742.6,0.0005
742.4,0.0006
742.2,0.0018
742.0,0.0005
741.8,0.0010
741.6,0.0008
741.4,0.0011
741.2,0.0015
741.0,0.0012
740.8,0.0007
740.6,0.0006
740.4,0.0011
740.2,0.0013
740.0,0.0004
739.8,0.0011
739.6,0.0014
739.4,0.0012
739.2,0.0004
739.0,0.0008
738.8,0.0017
738.6,0.0010
738.4,0.0007
738.2,0.0015
738.0,0.0010
737.8,0.0008
737.6,0.0008
737.4,0.0005
737.2,0.0008
737.0,0.0009
736.8,0.0016
736.6,0.0007
736.4,0.0013
736.2,0.0009
736.0,0.0008
735.8,0.0008
735.6,0.0015
735.4,0.0004
735.2,0.0011
735.0,0.0011
734.8,0.0010
734.6,0.0016
734.4,0.0013
734.2,0.0014
734.0,0.0007
733.8,0.0009
733.6,0.0006
733.4,0.0015
733.2,0.0003
733.0,0.0010
732.8,0.0000
732.6,0.0010
732.4,0.0002
732.2,0.0012
732.0,0.0009
731.8,0.0020
731.6,0.0010
731.4,0.0007
731.2,0.0013
731.0,-0.0001
730.8,0.0014
730.6,0.0002
730.4,0.0010
730.2,0.0012
730.0,0.0005
729.8,0.0005
729.6,0.0012
729.4,0.0007
729.2,-0.0001
729.0,0.0007
728.8,0.0011
728.6,0.0016
728.4,0.0013
728.2,0.0012
728.0,0.0010
727.8,0.0003
727.6,0.0012
727.4,0.0009
727.2,0.0008
727.0,0.0010
726.8,0.0005
726.6,0.0013
726.4,0.0008
726.2,0.0008
726.0,0.0005
725.8,0.0015
725.6,0.0008
725.4,0.0006
725.2,0.0016
725.0,0.0015
724.8,0.0005
724.6,0.0008
724.4,0.0008
724.2,0.0011
724.0,0.0004
723.8,0.0012
723.6,0.0007
723.4,0.0013
723.2,0.0010
723.0,0.0020
722.8,0.0011
722.6,0.0010
722.4,0.0009
722.2,0.0012
722.0,0.0013
721.8,0.0012
721.6,0.0010
721.4,0.0009
721.2,0.0009
721.0,0.0015
720.8,0.0012
720.6,0.0003
720.4,0.0007
720.2,0.0011
720.0,0.0012
719.8,0.0012
719.6,0.0014
719.4,0.0015
719.2,0.0007
719.0,0.0013
718.8,0.0012
718.6,0.0013
718.4,0.0012
718.2,0.0007
718.0,0.0011
717.8,0.0014
717.6,0.0016
717.4,0.0014
717.2,0.0011
717.0,0.0018
716.8,0.0019
716.6,0.0014
716.4,0.0011
716.2,0.0011
716.0,0.0016
715.8,0.0014
715.6,0.0014
715.4,0.0019
715.2,0.0017
715.0,0.0021
714.8,0.0015
714.6,0.0019
714.4,0.0016
714.2,0.0015
714.0,0.0020
713.8,0.0017
713.6,0.0019
713.4,0.0018
713.2,0.0020
713.0,0.0020
712.8,0.0016
712.6,0.0017
712.4,0.0025
712.2,0.0024
712.0,0.0021
711.8,0.0023
711.6,0.0022
711.4,0.0021
711.2,0.0023
711.0,0.0022
710.8,0.0019
710.6,0.0026
710.4,0.0027
710.2,0.0024
710.0,0.0023
709.8,0.0027
709.6,0.0031
709.4,0.0024
709.2,0.0027
709.0,0.0031
708.8,0.0019
708.6,0.0025
708.4,0.0030
708.2,0.0025
708.0,0.0026
707.8,0.0023
707.6,0.0026
707.4,0.0030
707.2,0.0027
707.0,0.0035
706.8,0.0022
706.6,0.0025
706.4,0.0025
706.2,0.0028
706.0,0.0033
705.8,0.0022
705.6,0.0028
705.4,0.0028
705.2,0.0024
705.0,0.0034
704.8,0.0032
704.6,0.0029
704.4,0.0029
704.2,0.0030
704.0,0.0033
703.8,0.0035
703.6,0.0027
703.4,0.0032
703.2,0.0029
703.0,0.0032
702.8,0.0025
702.6,0.0032
702.4,0.0025
702.2,0.0030
702.0,0.0033
701.8,0.0032
701.6,0.0037
701.4,0.0028
701.2,0.0032
701.0,0.0029
700.8,0.0031
700.6,0.0034
700.4,0.0033
700.2,0.0035
700.0,0.0033
699.8,0.0032
699.6,0.0030
699.4,0.0032
699.2,0.0029
699.0,0.0030
698.8,0.0036
698.6,0.0038
698.4,0.0034
698.2,0.0036
698.0,0.0035
697.8,0.0032
697.6,0.0031
697.4,0.0034
697.2,0.0032
697.0,0.0037
696.8,0.0035
696.6,0.0033
696.4,0.0036
696.2,0.0029
696.0,0.0038
695.8,0.0034
695.6,0.0032
695.4,0.0032
695.2,0.0031
695.0,0.0033
694.8,0.0031
694.6,0.0033
694.4,0.0033
694.2,0.0032
694.0,0.0035
693.8,0.0030
693.6,0.0033
693.4,0.0036
693.2,0.0038
693.0,0.0034
692.8,0.0036
692.6,0.0035
692.4,0.0035
692.2,0.0034
692.0,0.0040
691.8,0.0035
691.6,0.0040
691.4,0.0035
691.2,0.0037
691.0,0.0035
690.8,0.0038
690.6,0.0038
690.4,0.0039
690.2,0.0044
690.0,0.0041
689.8,0.0038
689.6,0.0037
689.4,0.0042
689.2,0.0040
689.0,0.0034
688.8,0.0038
688.6,0.0038
688.4,0.0039
688.2,0.0043
688.0,0.0036
687.8,0.0039
687.6,0.0043
687.4,0.0041
687.2,0.0033
687.0,0.0036
686.8,0.0041
686.6,0.0041
686.4,0.0044
686.2,0.0050
686.0,0.0044
685.8,0.0041
685.6,0.0043
685.4,0.0041
685.2,0.0039
685.0,0.0043
684.8,0.0045
684.6,0.0044
684.4,0.0050
684.2,0.0049
684.0,0.0042
683.8,0.0045
683.6,0.0045
683.4,0.0041
683.2,0.0039
683.0,0.0051
682.8,0.0046
682.6,0.0043
682.4,0.0049
682.2,0.0047
682.0,0.0049
681.8,0.0048
681.6,0.0048
681.4,0.0045
681.2,0.0045
681.0,0.0053
680.8,0.0045
680.6,0.0039
680.4,0.0046
680.2,0.0048
680.0,0.0048
679.8,0.0050
679.6,0.0046
679.4,0.0050
679.2,0.0048
679.0,0.0047
678.8,0.0048
678.6,0.0048
678.4,0.0051
678.2,0.0049
678.0,0.0053
677.8,0.0056
677.6,0.0053
677.4,0.0055
677.2,0.0049
677.0,0.0051
676.8,0.0052
676.6,0.0051
676.4,0.0051
676.2,0.0055
676.0,0.0055
675.8,0.0058
675.6,0.0060
675.4,0.0053
675.2,0.0056
675.0,0.0054
674.8,0.0055
674.6,0.0056
674.4,0.0055
674.2,0.0059
674.0,0.0055
673.8,0.0053
673.6,0.0061
673.4,0.0062
673.2,0.0056
673.0,0.0056
672.8,0.0057
672.6,0.0061
672.4,0.0061
672.2,0.0062
672.0,0.0060
671.8,0.0062
671.6,0.0058
671.4,0.0064
671.2,0.0061
671.0,0.0062
670.8,0.0066
670.6,0.0064
670.4,0.0061
670.2,0.0065
670.0,0.0062
669.8,0.0064
669.6,0.0062
669.4,0.0066
669.2,0.0063
669.0,0.0068
668.8,0.0071
668.6,0.0070
668.4,0.0067
668.2,0.0067
668.0,0.0068
667.8,0.0065
667.6,0.0067
667.4,0.0070
667.2,0.0071
667.0,0.0066
666.8,0.0072
666.6,0.0066
666.4,0.0069
666.2,0.0068
666.0,0.0070
665.8,0.0069
665.6,0.0071
665.4,0.0071
665.2,0.0066
665.0,0.0072
664.8,0.0067
664.6,0.0068
664.4,0.0070
664.2,0.0075
664.0,0.0066
663.8,0.0069
663.6,0.0073
663.4,0.0076
663.2,0.0066
663.0,0.0070
662.8,0.0069
662.6,0.0067
662.4,0.0066
662.2,0.0069
662.0,0.0071
661.8,0.0067
661.6,0.0067
661.4,0.0069
661.2,0.0070
661.0,0.0072
660.8,0.0060
660.6,0.0065
660.4,0.0068
660.2,0.0065
660.0,0.0070
659.8,0.0077
659.6,0.0064
659.4,0.0068
659.2,0.0073
659.0,0.0065
658.8,0.0072
658.6,0.0070
658.4,0.0068
658.2,0.0066
658.0,0.0065
657.8,0.0068
657.6,0.0063
657.4,0.0061
657.2,0.0064
657.0,0.0062
656.8,0.0063
656.6,0.0066
656.4,0.0064
656.2,0.0062
656.0,0.0063
655.8,0.0065
655.6,0.0066
655.4,0.0066
655.2,0.0064
655.0,0.0063
654.8,0.0065
654.6,0.0063
654.4,0.0064
654.2,0.0062
654.0,0.0063
653.8,0.0064
653.6,0.0058
653.4,0.0060
653.2,0.0061
653.0,0.0060
652.8,0.0054
652.6,0.0054
652.4,0.0056
652.2,0.0061
652.0,0.0057
651.8,0.0055
651.6,0.0058
651.4,0.0059
651.2,0.0058
651.0,0.0062
650.8,0.0056
650.6,0.0060
650.4,0.0058
650.2,0.0057
650.0,0.0059
649.8,0.0052
649.6,0.0056
649.4,0.0057
649.2,0.0054
649.0,0.0051
648.8,0.0053
648.6,0.0055
648.4,0.0052
648.2,0.0053
648.0,0.0054
647.8,0.0056
647.6,0.0053
647.4,0.0052
647.2,0.0053
647.0,0.0051
646.8,0.0050
646.6,0.0051
646.4,0.0053
646.2,0.0051
646.0,0.0053
645.8,0.0051
645.6,0.0048
645.4,0.0052
645.2,0.0052
645.0,0.0049
644.8,0.0052
644.6,0.0053
644.4,0.0052
644.2,0.0053
644.0,0.0049
643.8,0.0048
643.6,0.0048
643.4,0.0048
643.2,0.0045
643.0,0.0047
642.8,0.0051
642.6,0.0046
642.4,0.0050
642.2,0.0051
642.0,0.0048
641.8,0.0051
641.6,0.0046
641.4,0.0052
641.2,0.0050
641.0,0.0048
640.8,0.0053
640.6,0.0049
640.4,0.0047
640.2,0.0053
640.0,0.0049
639.8,0.0048
639.6,0.0047
639.4,0.0050
639.2,0.0047
639.0,0.0045
638.8,0.0045
638.6,0.0047
638.4,0.0051
638.2,0.0044
638.0,0.0046
637.8,0.0045
637.6,0.0043
637.4,0.0048
637.2,0.0051
637.0,0.0046
636.8,0.0048
636.6,0.0049
636.4,0.0042
636.2,0.0044
636.0,0.0043
635.8,0.0047
635.6,0.0046
635.4,0.0048
635.2,0.0052
635.0,0.0046
634.8,0.0049
634.6,0.0045
634.4,0.0044
634.2,0.0048
634.0,0.0046
633.8,0.0048
633.6,0.0045
633.4,0.0042
633.2,0.0044
633.0,0.0047
632.8,0.0046
632.6,0.0044
632.4,0.0046
632.2,0.0043
632.0,0.0044
631.8,0.0044
631.6,0.0042
631.4,0.0047
631.2,0.0043
631.0,0.0044
630.8,0.0045
630.6,0.0047
630.4,0.0045
630.2,0.0045
630.0,0.0043
629.8,0.0047
629.6,0.0041
629.4,0.0045
629.2,0.0048
629.0,0.0043
628.8,0.0045
628.6,0.0043
628.4,0.0046
628.2,0.0043
628.0,0.0045
627.8,0.0044
627.6,0.0043
627.4,0.0042
627.2,0.0047
627.0,0.0043
626.8,0.0044
626.6,0.0043
626.4,0.0047
626.2,0.0042
626.0,0.0045
625.8,0.0047
625.6,0.0044
625.4,0.0042
625.2,0.0044
625.0,0.0039
624.8,0.0043
624.6,0.0044
624.4,0.0044
624.2,0.0043
624.0,0.0043
623.8,0.0046
623.6,0.0039
623.4,0.0045
623.2,0.0041
623.0,0.0042
622.8,0.0042
622.6,0.0038
622.4,0.0041
622.2,0.0039
622.0,0.0042
621.8,0.0046
621.6,0.0043
621.4,0.0044
621.2,0.0046
621.0,0.0046
620.8,0.0047
620.6,0.0042
620.4,0.0045
620.2,0.0040
620.0,0.0045
619.8,0.0045
619.6,0.0043
619.4,0.0038
619.2,0.0040
619.0,0.0043
618.8,0.0038
618.6,0.0043
618.4,0.0040
618.2,0.0038
618.0,0.0046
617.8,0.0044
617.6,0.0040
617.4,0.0045
617.2,0.0040
617.0,0.0044
616.8,0.0036
616.6,0.0038
616.4,0.0037
616.2,0.0039
616.0,0.0037
615.8,0.0034
615.6,0.0040
615.4,0.0036
615.2,0.0038
615.0,0.0036
614.8,0.0042
614.6,0.0036
614.4,0.0038
614.2,0.0039
614.0,0.0039
613.8,0.0036
613.6,0.0032
613.4,0.0035
613.2,0.0038
613.0,0.0030
612.8,0.0038
612.6,0.0034
612.4,0.0034
612.2,0.0035
612.0,0.0036
611.8,0.0033
611.6,0.0032
611.4,0.0035
611.2,0.0033
611.0,0.0033
610.8,0.0030
610.6,0.0031
610.4,0.0033
610.2,0.0031
610.0,0.0032
609.8,0.0030
609.6,0.0027
609.4,0.0029
609.2,0.0033
609.0,0.0031
608.8,0.0027
608.6,0.0025
608.4,0.0026
608.2,0.0031
608.0,0.0029
607.8,0.0024
607.6,0.0027
607.4,0.0025
607.2,0.0024
607.0,0.0021
606.8,0.0026
606.6,0.0025
606.4,0.0021
606.2,0.0025
606.0,0.0024
605.8,0.0022
605.6,0.0022
605.4,0.0023
605.2,0.0025
605.0,0.0024
604.8,0.0021
604.6,0.0021
604.4,0.0019
604.2,0.0020
604.0,0.0018
603.8,0.0021
603.6,0.0018
603.4,0.0020
603.2,0.0019
603.0,0.0017
602.8,0.0014
602.6,0.0018
602.4,0.0017
602.2,0.0015
602.0,0.0018
601.8,0.0014
601.6,0.0013
601.4,0.0013
601.2,0.0010
601.0,0.0012
600.8,0.0012
600.6,0.0010
600.4,0.0010
600.2,0.0010
600.0,0.0013
599.8,0.0010
599.6,0.0011
599.4,0.0006
599.2,0.0009
599.0,0.0007
598.8,0.0009
598.6,0.0010
598.4,0.0006
598.2,0.0007
598.0,0.0005
597.8,0.0005
597.6,0.0008
597.4,0.0005
597.2,0.0002
597.0,0.0002
596.8,0.0003
596.6,0.0001
596.4,0.0001
596.2,0.0001
596.0,0.0002
595.8,0.0002
595.6,0.0002
595.4,0.0001
595.2,-0.0003
595.0,0.0001
594.8,-0.0001
594.6,-0.0006
594.4,-0.0001
594.2,-0.0002
594.0,-0.0005
593.8,-0.0004
593.6,-0.0007
593.4,-0.0006
593.2,-0.0006
593.0,-0.0007
592.8,-0.0004
592.6,-0.0010
592.4,-0.0008
592.2,-0.0008
592.0,-0.0006
591.8,-0.0010
591.6,-0.0008
591.4,-0.0011
591.2,-0.0011
591.0,-0.0016
590.8,-0.0011
590.6,-0.0009
590.4,-0.0017
590.2,-0.0011
590.0,-0.0009
589.8,-0.0013
589.6,-0.0013
589.4,-0.0016
589.2,-0.0016
589.0,-0.0015
588.8,-0.0017
588.6,-0.0018
588.4,-0.0017
588.2,-0.0020
588.0,-0.0015
587.8,-0.0016
587.6,-0.0014
587.4,-0.0021
587.2,-0.0019
587.0,-0.0022
586.8,-0.0021
586.6,-0.0024
586.4,-0.0021
586.2,-0.0023
586.0,-0.0024
585.8,-0.0025
585.6,-0.0025
585.4,-0.0027
585.2,-0.0027
585.0,-0.0027
584.8,-0.0024
584.6,-0.0028
584.4,-0.0025
584.2,-0.0029
584.0,-0.0029
583.8,-0.0029
583.6,-0.0026
583.4,-0.0024
583.2,-0.0028
583.0,-0.0030
582.8,-0.0031
582.6,-0.0030
582.4,-0.0030
582.2,-0.0034
582.0,-0.0031
581.8,-0.0033
581.6,-0.0034
581.4,-0.0034
581.2,-0.0036
581.0,-0.0034
580.8,-0.0035
580.6,-0.0036
580.4,-0.0035
580.2,-0.0038
580.0,-0.0037