File: Figure1/UV-vis/Sample339.Sample.csv
Created as New Dataset,
nm,A
800.0,0.0011
799.8,0.0026
799.6,0.0034
799.4,0.0022
799.2,0.0026
799.0,0.0020
798.8,0.0018
798.6,0.0019
798.4,0.0030
798.2,0.0020
798.0,0.0021
797.8,0.0034
797.6,0.0026
797.4,0.0024
797.2,0.0038
797.0,0.0034
796.8,0.0021
796.6,0.0030
796.4,0.0028
796.2,0.0020
796.0,0.0028
795.8,0.0032
795.6,0.0025
795.4,0.0019
795.2,0.0035
795.0,0.0024
794.8,0.0018
794.6,0.0029
794.4,0.0029
794.2,0.0027
794.0,0.0028
793.8,0.0032
793.6,0.0031
793.4,0.0011
793.2,0.0034
793.0,0.0024
792.8,0.0027
792.6,0.0023
792.4,0.0027
792.2,0.0030
792.0,0.0033
791.8,0.0019
791.6,0.0023
791.4,0.0022
791.2,0.0028
791.0,0.0031
790.8,0.0027
790.6,0.0031
790.4,0.0020
790.2,0.0038
790.0,0.0034
789.8,0.0023
789.6,0.0017
789.4,0.0032
789.2,0.0027
789.0,0.0032
788.8,0.0029
788.6,0.0022
788.4,0.0021
788.2,0.0026
788.0,0.0024
787.8,0.0023
787.6,0.0026
787.4,0.0037
787.2,0.0027
787.0,0.0028
786.8,0.0021
786.6,0.0021
786.4,0.0022
786.2,0.0025
786.0,0.0022
785.8,0.0026
785.6,0.0021
785.4,0.0026
785.2,0.0021
785.0,0.0020
784.8,0.0026
784.6,0.0029
784.4,0.0027
784.2,0.0024
784.0,0.0029
783.8,0.0027
783.6,0.0025
783.4,0.0033
783.2,0.0028
783.0,0.0035
782.8,0.0029
782.6,0.0027
782.4,0.0038
782.2,0.0024
782.0,0.0033
781.8,0.0028
781.6,0.0019
781.4,0.0017
781.2,0.0027
781.0,0.0022
780.8,0.0022
780.6,0.0030
780.4,0.0031
780.2,0.0022
780.0,0.0023
779.8,0.0031
779.6,0.0025
779.4,0.0029
779.2,0.0034
779.0,0.0028
778.8,0.0032
778.6,0.0023
778.4,0.0023
778.2,0.0038
778.0,0.0023
777.8,0.0021
777.6,0.0026
777.4,0.0031
777.2,0.0030
777.0,0.0035
776.8,0.0030
776.6,0.0035
776.4,0.0033
776.2,0.0031
776.0,0.0026
775.8,0.0038
775.6,0.0028
775.4,0.0032
775.2,0.0033
775.0,0.0036
774.8,0.0030
774.6,0.0039
774.4,0.0022
774.2,0.0031
774.0,0.0032
773.8,0.0034
773.6,0.0028
773.4,0.0027
773.2,0.0036
773.0,0.0032
772.8,0.0030
772.6,0.0027
772.4,0.0029
772.2,0.0031
772.0,0.0031
771.8,0.0033
771.6,0.0029
771.4,0.0027
771.2,0.0032
771.0,0.0032
770.8,0.0035
770.6,0.0038
770.4,0.0026
770.2,0.0031
770.0,0.0045
769.8,0.0032
769.6,0.0026
769.4,0.0034
769.2,0.0034
769.0,0.0034
768.8,0.0031
768.6,0.0029
768.4,0.0029
768.2,0.0022
768.0,0.0031
767.8,0.0031
767.6,0.0035
767.4,0.0040
767.2,0.0031
767.0,0.0022
766.8,0.0032
766.6,0.0034
766.4,0.0030
766.2,0.0027
766.0,0.0029
765.8,0.0035
765.6,0.0030
765.4,0.0036
765.2,0.0041
765.0,0.0035
764.8,0.0030
764.6,0.0029
764.4,0.0034
764.2,0.0027
764.0,0.0029
763.8,0.0032
763.6,0.0026
763.4,0.0034
763.2,0.0035
763.0,0.0036
762.8,0.0029
762.6,0.0031
762.4,0.0040
762.2,0.0035
762.0,0.0039
761.8,0.0033
761.6,0.0035
761.4,0.0036
761.2,0.0036
761.0,0.0040
760.8,0.0033
760.6,0.0037
760.4,0.0030
760.2,0.0033
760.0,0.0036
759.8,0.0033
759.6,0.0043
759.4,0.0031
759.2,0.0039
759.0,0.0029
758.8,0.0030
758.6,0.0031
758.4,0.0040
758.2,0.0034
758.0,0.0034
757.8,0.0041
757.6,0.0034
757.4,0.0040
757.2,0.0049
757.0,0.0038
756.8,0.0036
756.6,0.0040
756.4,0.0038
756.2,0.0033
756.0,0.0035
755.8,0.0030
755.6,0.0034
755.4,0.0031
755.2,0.0038
755.0,0.0036
754.8,0.0040
754.6,0.0044
754.4,0.0034
754.2,0.0041
754.0,0.0041
753.8,0.0038
753.6,0.0039
753.4,0.0045
753.2,0.0033
753.0,0.0034
752.8,0.0043
752.6,0.0034
752.4,0.0040
752.2,0.0039
752.0,0.0033
751.8,0.0038
751.6,0.0032
751.4,0.0034
751.2,0.0035
751.0,0.0047
750.8,0.0038
750.6,0.0035
750.4,0.0042
750.2,0.0032
750.0,0.0035
749.8,0.0033
749.6,0.0036
749.4,0.0037
749.2,0.0046
749.0,0.0033
748.8,0.0039
748.6,0.0032
748.4,0.0040
748.2,0.0036
748.0,0.0035
747.8,0.0042
747.6,0.0048
747.4,0.0041
747.2,0.0045
747.0,0.0040
746.8,0.0035
746.6,0.0041
746.4,0.0036
746.2,0.0038
746.0,0.0041
745.8,0.0039
745.6,0.0039
745.4,0.0035
745.2,0.0042
745.0,0.0038
744.8,0.0037
744.6,0.0041
744.4,0.0040
744.2,0.0039
744.0,0.0039
743.8,0.0036
743.6,0.0039
743.4,0.0042
743.2,0.0045
743.0,0.0039
742.8,0.0035
742.6,0.0035
742.4,0.0042
742.2,0.0046
742.0,0.0037
741.8,0.0041
741.6,0.0037
741.4,0.0045
741.2,0.0047
741.0,0.0039
740.8,0.0042
740.6,0.0042
740.4,0.0041
740.2,0.0044
740.0,0.0036
739.8,0.0046
739.6,0.0044
739.4,0.0044
739.2,0.0042
739.0,0.0041
738.8,0.0045
738.6,0.0039
738.4,0.0038
738.2,0.0040
738.0,0.0042
737.8,0.0040
737.6,0.0044
737.4,0.0034
737.2,0.0042
737.0,0.0043
736.8,0.0046
736.6,0.0040
736.4,0.0044
736.2,0.0041
736.0,0.0047
735.8,0.0045
735.6,0.0044
735.4,0.0039
735.2,0.0048
735.0,0.0042
734.8,0.0048
734.6,0.0043
734.4,0.0047
734.2,0.0046
734.0,0.0038
733.8,0.0038
733.6,0.0041
733.4,0.0048
733.2,0.0041
733.0,0.0046
732.8,0.0032
732.6,0.0044
732.4,0.0036
732.2,0.0046
732.0,0.0042
731.8,0.0043
731.6,0.0048
731.4,0.0043
731.2,0.0045
731.0,0.0031
730.8,0.0047
730.6,0.0038
730.4,0.0048
730.2,0.0047
730.0,0.0041
729.8,0.0042
729.6,0.0044
729.4,0.0039
729.2,0.0035
729.0,0.0049
728.8,0.0048
728.6,0.0043
728.4,0.0044
728.2,0.0035
728.0,0.0046
727.8,0.0044
727.6,0.0041
727.4,0.0042
727.2,0.0043
727.0,0.0040
726.8,0.0040
726.6,0.0052
726.4,0.0049
726.2,0.0044
726.0,0.0041
725.8,0.0054
725.6,0.0041
725.4,0.0045
725.2,0.0049
725.0,0.0045
724.8,0.0043
724.6,0.0043
724.4,0.0046
724.2,0.0048
724.0,0.0043
723.8,0.0044
723.6,0.0043
723.4,0.0043
723.2,0.0046
723.0,0.0053
722.8,0.0045
722.6,0.0046
722.4,0.0048
722.2,0.0041
722.0,0.0050
721.8,0.0050
721.6,0.0047
721.4,0.0048
721.2,0.0053
721.0,0.0050
720.8,0.0048
720.6,0.0044
720.4,0.0050
720.2,0.0045
720.0,0.0048
719.8,0.0048
719.6,0.0052
719.4,0.0050
719.2,0.0047
719.0,0.0049
718.8,0.0050
718.6,0.0049
718.4,0.0047
718.2,0.0046
718.0,0.0049
717.8,0.0051
717.6,0.0047
717.4,0.0047
717.2,0.0046
717.0,0.0052
716.8,0.0049
716.6,0.0051
716.4,0.0045
716.2,0.0046
716.0,0.0050
715.8,0.0053
715.6,0.0046
715.4,0.0051
715.2,0.0046
715.0,0.0054
714.8,0.0051
714.6,0.0050
714.4,0.0046
714.2,0.0048
714.0,0.0050
713.8,0.0051
713.6,0.0047
713.4,0.0048
713.2,0.0053
713.0,0.0049
712.8,0.0051
712.6,0.0045
712.4,0.0052
712.2,0.0050
712.0,0.0050
711.8,0.0054
711.6,0.0050
711.4,0.0052
711.2,0.0055
711.0,0.0056
710.8,0.0052
710.6,0.0057
710.4,0.0050
710.2,0.0053
710.0,0.0052
709.8,0.0054
709.6,0.0050
709.4,0.0049
709.2,0.0056
709.0,0.0054
708.8,0.0042
708.6,0.0051
708.4,0.0049
708.2,0.0046
708.0,0.0054
707.8,0.0047
707.6,0.0053
707.4,0.0056
707.2,0.0051
707.0,0.0059
706.8,0.0046
706.6,0.0048
706.4,0.0052
706.2,0.0057
706.0,0.0057
705.8,0.0043
705.6,0.0056
705.4,0.0053
705.2,0.0059
705.0,0.0061
704.8,0.0061
704.6,0.0054
704.4,0.0052
704.2,0.0050
704.0,0.0056
703.8,0.0061
703.6,0.0045
703.4,0.0053
703.2,0.0052
703.0,0.0053
702.8,0.0052
702.6,0.0053
702.4,0.0052
702.2,0.0055
702.0,0.0056
701.8,0.0054
701.6,0.0057
701.4,0.0054
701.2,0.0052
701.0,0.0052
700.8,0.0058
700.6,0.0058
700.4,0.0053
700.2,0.0056
700.0,0.0055
699.8,0.0054
699.6,0.0055
699.4,0.0057
699.2,0.0052
699.0,0.0056
698.8,0.0053
698.6,0.0059
698.4,0.0057
698.2,0.0055
698.0,0.0059
697.8,0.0053
697.6,0.0052
697.4,0.0060
697.2,0.0055
697.0,0.0057
696.8,0.0059
696.6,0.0053
696.4,0.0057
696.2,0.0052
696.0,0.0060
695.8,0.0056
695.6,0.0063
695.4,0.0057
695.2,0.0054
695.0,0.0057
694.8,0.0057
694.6,0.0055
694.4,0.0057
694.2,0.0058
694.0,0.0059
693.8,0.0059
693.6,0.0060
693.4,0.0059
693.2,0.0060
693.0,0.0060
692.8,0.0059
692.6,0.0053
692.4,0.0063
692.2,0.0056
692.0,0.0057
691.8,0.0057
691.6,0.0060
691.4,0.0058
691.2,0.0057
691.0,0.0061
690.8,0.0062
690.6,0.0060
690.4,0.0059
690.2,0.0062
690.0,0.0063
689.8,0.0059
689.6,0.0055
689.4,0.0066
689.2,0.0061
689.0,0.0056
688.8,0.0062
688.6,0.0062
688.4,0.0062
688.2,0.0064
688.0,0.0059
687.8,0.0062
687.6,0.0069
687.4,0.0058
687.2,0.0059
687.0,0.0053
686.8,0.0061
686.6,0.0061
686.4,0.0065
686.2,0.0064
686.0,0.0063
685.8,0.0061
685.6,0.0061
685.4,0.0067
685.2,0.0063
685.0,0.0064
684.8,0.0065
684.6,0.0064
684.4,0.0071
684.2,0.0077
684.0,0.0062
683.8,0.0060
683.6,0.0070
683.4,0.0064
683.2,0.0064
683.0,0.0071
682.8,0.0066
682.6,0.0065
682.4,0.0066
682.2,0.0062
682.0,0.0069
681.8,0.0071
681.6,0.0070
681.4,0.0066
681.2,0.0063
681.0,0.0067
680.8,0.0064
680.6,0.0062
680.4,0.0069
680.2,0.0066
680.0,0.0067
679.8,0.0066
679.6,0.0062
679.4,0.0069
679.2,0.0066
679.0,0.0066
678.8,0.0072
678.6,0.0067
678.4,0.0069
678.2,0.0061
678.0,0.0072
677.8,0.0071
677.6,0.0072
677.4,0.0074
677.2,0.0071
677.0,0.0069
676.8,0.0071
676.6,0.0073
676.4,0.0072
676.2,0.0074
676.0,0.0072
675.8,0.0074
675.6,0.0076
675.4,0.0073
675.2,0.0070
675.0,0.0067
674.8,0.0078
674.6,0.0069
674.4,0.0073
674.2,0.0073
674.0,0.0074
673.8,0.0073
673.6,0.0071
673.4,0.0073
673.2,0.0072
673.0,0.0072
672.8,0.0073
672.6,0.0076
672.4,0.0075
672.2,0.0074
672.0,0.0076
671.8,0.0079
671.6,0.0074
671.4,0.0080
671.2,0.0078
671.0,0.0078
670.8,0.0078
670.6,0.0078
670.4,0.0075
670.2,0.0077
670.0,0.0079
669.8,0.0078
669.6,0.0074
669.4,0.0078
669.2,0.0075
669.0,0.0077
668.8,0.0081
668.6,0.0082
668.4,0.0076
668.2,0.0077
668.0,0.0078
667.8,0.0079
667.6,0.0075
667.4,0.0081
667.2,0.0077
667.0,0.0080
666.8,0.0077
666.6,0.0079
666.4,0.0079
666.2,0.0077
666.0,0.0082
665.8,0.0083
665.6,0.0076
665.4,0.0079
665.2,0.0080
665.0,0.0081
664.8,0.0073
664.6,0.0079
664.4,0.0078
664.2,0.0082
664.0,0.0080
663.8,0.0080
663.6,0.0075
663.4,0.0079
663.2,0.0078
663.0,0.0076
662.8,0.0075
662.6,0.0075
662.4,0.0078
662.2,0.0079
662.0,0.0080
661.8,0.0078
661.6,0.0079
661.4,0.0080
661.2,0.0082
661.0,0.0078
660.8,0.0076
660.6,0.0080
660.4,0.0075
660.2,0.0076
660.0,0.0078
659.8,0.0082
659.6,0.0075
659.4,0.0073
659.2,0.0080
659.0,0.0073
658.8,0.0079
658.6,0.0074
658.4,0.0082
658.2,0.0075
658.0,0.0077
657.8,0.0081
657.6,0.0073
657.4,0.0071
657.2,0.0078
657.0,0.0076
656.8,0.0071
656.6,0.0072
656.4,0.0073
656.2,0.0073
656.0,0.0073
655.8,0.0071
655.6,0.0076
655.4,0.0073
655.2,0.0070
655.0,0.0072
654.8,0.0073
654.6,0.0069
654.4,0.0072
654.2,0.0074
654.0,0.0075
653.8,0.0070
653.6,0.0069
653.4,0.0072
653.2,0.0072
653.0,0.0074
652.8,0.0065
652.6,0.0071
652.4,0.0068
652.2,0.0070
652.0,0.0071
651.8,0.0068
651.6,0.0070
651.4,0.0067
651.2,0.0071
651.0,0.0071
650.8,0.0066
650.6,0.0070
650.4,0.0071
650.2,0.0071
650.0,0.0070
649.8,0.0067
649.6,0.0064
649.4,0.0064
649.2,0.0068
649.0,0.0064
648.8,0.0065
648.6,0.0069
648.4,0.0066
648.2,0.0067
648.0,0.0066
647.8,0.0070
647.6,0.0065
647.4,0.0067
647.2,0.0065
647.0,0.0064
646.8,0.0064
646.6,0.0064
646.4,0.0065
646.2,0.0060
646.0,0.0064
645.8,0.0067
645.6,0.0063
645.4,0.0069
645.2,0.0069
645.0,0.0069
644.8,0.0071
644.6,0.0069
644.4,0.0067
644.2,0.0070
644.0,0.0068
643.8,0.0065
643.6,0.0067
643.4,0.0069
643.2,0.0065
643.0,0.0065
642.8,0.0065
642.6,0.0062
642.4,0.0066
642.2,0.0066
642.0,0.0065
641.8,0.0070
641.6,0.0061
641.4,0.0063
641.2,0.0067
641.0,0.0066
640.8,0.0072
640.6,0.0068
640.4,0.0068
640.2,0.0068
640.0,0.0065
639.8,0.0067
639.6,0.0068
639.4,0.0072
639.2,0.0063
639.0,0.0064
638.8,0.0066
638.6,0.0067
638.4,0.0066
638.2,0.0062
638.0,0.0066
637.8,0.0066
637.6,0.0064
637.4,0.0067
637.2,0.0067
637.0,0.0064
636.8,0.0069
636.6,0.0070
636.4,0.0065
636.2,0.0068
636.0,0.0062
635.8,0.0068
635.6,0.0062
635.4,0.0063
635.2,0.0068
635.0,0.0069
634.8,0.0065
634.6,0.0069
634.4,0.0065
634.2,0.0067
634.0,0.0067
633.8,0.0067
633.6,0.0066
633.4,0.0060
633.2,0.0065
633.0,0.0065
632.8,0.0068
632.6,0.0062
632.4,0.0065
632.2,0.0060
632.0,0.0064
631.8,0.0065
631.6,0.0065
631.4,0.0069
631.2,0.0063
631.0,0.0068
630.8,0.0061
630.6,0.0067
630.4,0.0065
630.2,0.0065
630.0,0.0064
629.8,0.0064
629.6,0.0065
629.4,0.0067
629.2,0.0067
629.0,0.0065
628.8,0.0068
628.6,0.0065
628.4,0.0066
628.2,0.0063
628.0,0.0068
627.8,0.0068
627.6,0.0065
627.4,0.0064
627.2,0.0068
627.0,0.0065
626.8,0.0063
626.6,0.0062
626.4,0.0064
626.2,0.0065
626.0,0.0063
625.8,0.0065
625.6,0.0064
625.4,0.0064
625.2,0.0064
625.0,0.0063
624.8,0.0068
624.6,0.0065
624.4,0.0065
624.2,0.0064
624.0,0.0069
623.8,0.0069
623.6,0.0062
623.4,0.0065
623.2,0.0062
623.0,0.0064
622.8,0.0065
622.6,0.0060
622.4,0.0065
622.2,0.0063
622.0,0.0067
621.8,0.0066
621.6,0.0061
621.4,0.0064
621.2,0.0069
621.0,0.0068
620.8,0.0069
620.6,0.0068
620.4,0.0067
620.2,0.0065
620.0,0.0070
619.8,0.0065
619.6,0.0067
619.4,0.0066
619.2,0.0065
619.0,0.0065
618.8,0.0064
618.6,0.0064
618.4,0.0064
618.2,0.0065
618.0,0.0064
617.8,0.0064
617.6,0.0069
617.4,0.0063
617.2,0.0062
617.0,0.0066
616.8,0.0063
616.6,0.0063
616.4,0.0060
616.2,0.0066
616.0,0.0066
615.8,0.0061
615.6,0.0068
615.4,0.0066
615.2,0.0063
615.0,0.0066
614.8,0.0066
614.6,0.0064
614.4,0.0070
614.2,0.0067
614.0,0.0066
613.8,0.0062
613.6,0.0060
613.4,0.0064
613.2,0.0064
613.0,0.0055
612.8,0.0061
612.6,0.0057
612.4,0.0059
612.2,0.0062
612.0,0.0062
611.8,0.0062
611.6,0.0060
611.4,0.0065
611.2,0.0058
611.0,0.0056
610.8,0.0061
610.6,0.0062
610.4,0.0057
610.2,0.0064
610.0,0.0062
609.8,0.0051
609.6,0.0057
609.4,0.0055
609.2,0.0061
609.0,0.0060
608.8,0.0056
608.6,0.0056
608.4,0.0058
608.2,0.0060
608.0,0.0057
607.8,0.0054
607.6,0.0051
607.4,0.0056
607.2,0.0054
607.0,0.0057
606.8,0.0053
606.6,0.0057
606.4,0.0057
606.2,0.0054
606.0,0.0056
605.8,0.0054
605.6,0.0052
605.4,0.0054
605.2,0.0056
605.0,0.0057
604.8,0.0053
604.6,0.0053
604.4,0.0052
604.2,0.0054
604.0,0.0050
603.8,0.0051
603.6,0.0049
603.4,0.0049
603.2,0.0049
603.0,0.0050
602.8,0.0048
602.6,0.0051
602.4,0.0047
602.2,0.0048
602.0,0.0046
601.8,0.0048
601.6,0.0047
601.4,0.0047
601.2,0.0045
601.0,0.0047
600.8,0.0047
600.6,0.0045
600.4,0.0044
600.2,0.0048
600.0,0.0045
599.8,0.0044
599.6,0.0044
599.4,0.0041
599.2,0.0046
599.0,0.0042
598.8,0.0042
598.6,0.0043
598.4,0.0042
598.2,0.0044
598.0,0.0040
597.8,0.0041
597.6,0.0042
597.4,0.0042
597.2,0.0040
597.0,0.0043
596.8,0.0041
596.6,0.0041
596.4,0.0037
596.2,0.0039
596.0,0.0037
595.8,0.0041
595.6,0.0038
595.4,0.0037
595.2,0.0039
595.0,0.0037
594.8,0.0039
594.6,0.0035
594.4,0.0036
594.2,0.0034
594.0,0.0033
593.8,0.0035
593.6,0.0031
593.4,0.0032
593.2,0.0032
593.0,0.0031
592.8,0.0032
592.6,0.0034
592.4,0.0030
592.2,0.0031
592.0,0.0035
591.8,0.0029
591.6,0.0032
591.4,0.0033
591.2,0.0031
591.0,0.0028
590.8,0.0034
590.6,0.0030
590.4,0.0032
590.2,0.0033
590.0,0.0033
589.8,0.0027
589.6,0.0029
589.4,0.0031
589.2,0.0026
589.0,0.0027
588.8,0.0028
588.6,0.0029
588.4,0.0028
588.2,0.0026
588.0,0.0032
587.8,0.0032
587.6,0.0029
587.4,0.0022
587.2,0.0028
587.0,0.0028
586.8,0.0026
586.6,0.0024
586.4,0.0023
586.2,0.0022
586.0,0.0021
585.8,0.0017
585.6,0.0023
585.4,0.0020
585.2,0.0022
585.0,0.0024
584.8,0.0027
584.6,0.0023
584.4,0.0025
584.2,0.0023
584.0,0.0021
583.8,0.0021
583.6,0.0023
583.4,0.0024
583.2,0.0025
583.0,0.0022
582.8,0.0017
582.6,0.0021
582.4,0.0018
582.2,0.0016
582.0,0.0021
581.8,0.0018
581.6,0.0017
581.4,0.0019
581.2,0.0018
581.0,0.0019
580.8,0.0018
580.6,0.0017
580.4,0.0015
580.2,0.0013
580.0,0.0013