File: Figure1/UV-vis/Sample333.Sample.csv
Created as New Dataset,
nm,A
800.0,-0.0009
799.8,-0.0009
799.6,-0.0018
799.4,-0.0016
799.2,-0.0023
799.0,-0.0011
798.8,-0.0014
798.6,-0.0025
798.4,-0.0018
798.2,-0.0012
798.0,-0.0015
797.8,-0.0004
797.6,-0.0021
797.4,-0.0024
797.2,-0.0010
797.0,-0.0015
796.8,-0.0018
796.6,-0.0011
796.4,-0.0013
796.2,-0.0026
796.0,-0.0018
795.8,-0.0012
795.6,-0.0019
795.4,-0.0026
795.2,-0.0017
795.0,-0.0020
794.8,-0.0023
794.6,-0.0014
794.4,-0.0016
794.2,-0.0015
794.0,-0.0013
793.8,-0.0005
793.6,-0.0022
793.4,-0.0023
793.2,-0.0011
793.0,-0.0018
792.8,-0.0025
792.6,-0.0007
792.4,-0.0017
792.2,-0.0019
792.0,-0.0020
791.8,-0.0020
791.6,-0.0023
791.4,-0.0026
791.2,-0.0020
791.0,-0.0013
790.8,-0.0025
790.6,-0.0020
790.4,-0.0021
790.2,-0.0009
790.0,-0.0014
789.8,-0.0023
789.6,-0.0023
789.4,-0.0017
789.2,-0.0019
789.0,-0.0009
788.8,-0.0021
788.6,-0.0028
788.4,-0.0015
788.2,-0.0015
788.0,-0.0015
787.8,-0.0018
787.6,-0.0016
787.4,-0.0017
787.2,-0.0015
787.0,-0.0019
786.8,-0.0021
786.6,-0.0023
786.4,-0.0018
786.2,-0.0019
786.0,-0.0022
785.8,-0.0023
785.6,-0.0029
785.4,-0.0017
785.2,-0.0024
785.0,-0.0025
784.8,-0.0021
784.6,-0.0019
784.4,-0.0015
784.2,-0.0016
784.0,-0.0025
783.8,-0.0014
783.6,-0.0015
783.4,-0.0020
783.2,-0.0019
783.0,-0.0015
782.8,-0.0020
782.6,-0.0017
782.4,-0.0015
782.2,-0.0019
782.0,-0.0017
781.8,-0.0009
781.6,-0.0022
781.4,-0.0025
781.2,-0.0022
781.0,-0.0023
780.8,-0.0030
780.6,-0.0015
780.4,-0.0025
780.2,-0.0027
780.0,-0.0021
779.8,-0.0019
779.6,-0.0025
779.4,-0.0018
779.2,-0.0020
779.0,-0.0017
778.8,-0.0017
778.6,-0.0026
778.4,-0.0016
778.2,-0.0011
778.0,-0.0015
777.8,-0.0020
777.6,-0.0015
777.4,-0.0014
777.2,-0.0017
777.0,-0.0017
776.8,-0.0019
776.6,-0.0015
776.4,-0.0016
776.2,-0.0024
776.0,-0.0025
775.8,-0.0013
775.6,-0.0026
775.4,-0.0026
775.2,-0.0018
775.0,-0.0016
774.8,-0.0019
774.6,-0.0009
774.4,-0.0017
774.2,-0.0018
774.0,-0.0019
773.8,-0.0018
773.6,-0.0018
773.4,-0.0018
773.2,-0.0006
773.0,-0.0017
772.8,-0.0013
772.6,-0.0022
772.4,-0.0023
772.2,-0.0016
772.0,-0.0014
771.8,-0.0017
771.6,-0.0023
771.4,-0.0021
771.2,-0.0022
771.0,-0.0017
770.8,-0.0019
770.6,-0.0015
770.4,-0.0025
770.2,-0.0008
770.0,-0.0002
769.8,-0.0022
769.6,-0.0023
769.4,-0.0016
769.2,-0.0008
769.0,-0.0011
768.8,-0.0011
768.6,-0.0016
768.4,-0.0019
768.2,-0.0021
768.0,-0.0011
767.8,-0.0015
767.6,-0.0013
767.4,-0.0008
767.2,-0.0014
767.0,-0.0019
766.8,-0.0017
766.6,-0.0010
766.4,-0.0014
766.2,-0.0011
766.0,-0.0015
765.8,-0.0015
765.6,-0.0019
765.4,-0.0013
765.2,-0.0008
765.0,-0.0010
764.8,-0.0014
764.6,-0.0018
764.4,-0.0010
764.2,-0.0016
764.0,-0.0011
763.8,-0.0017
763.6,-0.0015
763.4,-0.0010
763.2,-0.0009
763.0,-0.0011
762.8,-0.0007
762.6,-0.0009
762.4,-0.0009
762.2,-0.0006
762.0,-0.0002
761.8,-0.0011
761.6,-0.0008
761.4,-0.0008
761.2,-0.0018
761.0,-0.0007
760.8,-0.0004
760.6,-0.0003
760.4,-0.0005
760.2,-0.0008
760.0,-0.0007
759.8,-0.0013
759.6,-0.0008
759.4,-0.0013
759.2,-0.0004
759.0,-0.0012
758.8,-0.0009
758.6,-0.0004
758.4,-0.0008
758.2,-0.0005
758.0,-0.0010
757.8,-0.0000
757.6,-0.0010
757.4,-0.0006
757.2,0.0000
757.0,-0.0006
756.8,-0.0007
756.6,-0.0005
756.4,-0.0000
756.2,-0.0011
756.0,-0.0007
755.8,-0.0004
755.6,-0.0008
755.4,-0.0009
755.2,-0.0003
755.0,-0.0004
754.8,0.0001
754.6,0.0003
754.4,-0.0002
754.2,0.0005
754.0,-0.0008
753.8,-0.0004
753.6,-0.0004
753.4,0.0008
753.2,-0.0010
753.0,-0.0004
752.8,0.0001
752.6,-0.0004
752.4,0.0002
752.2,-0.0004
752.0,-0.0007
751.8,-0.0006
751.6,-0.0005
751.4,-0.0012
751.2,-0.0007
751.0,-0.0001
750.8,-0.0010
750.6,0.0000
750.4,0.0004
750.2,-0.0004
750.0,0.0002
749.8,0.0003
749.6,-0.0000
749.4,0.0002
749.2,0.0000
749.0,-0.0003
748.8,-0.0006
748.6,-0.0003
748.4,0.0003
748.2,-0.0009
748.0,-0.0006
747.8,0.0008
747.6,0.0006
747.4,0.0002
747.2,0.0000
747.0,0.0000
746.8,-0.0004
746.6,-0.0001
746.4,-0.0008
746.2,0.0001
746.0,0.0001
745.8,-0.0002
745.6,-0.0003
745.4,0.0004
745.2,0.0002
745.0,0.0005
744.8,-0.0006
744.6,0.0000
744.4,-0.0008
744.2,-0.0005
744.0,0.0000
743.8,-0.0006
743.6,-0.0001
743.4,-0.0001
743.2,0.0005
743.0,-0.0000
742.8,-0.0011
742.6,-0.0008
742.4,-0.0005
742.2,0.0002
742.0,0.0000
741.8,-0.0008
741.6,-0.0001
741.4,-0.0003
741.2,0.0002
741.0,0.0001
740.8,0.0008
740.6,0.0001
740.4,0.0002
740.2,0.0004
740.0,-0.0009
739.8,0.0004
739.6,-0.0002
739.4,-0.0002
739.2,-0.0007
739.0,-0.0005
738.8,0.0006
738.6,-0.0001
738.4,-0.0002
738.2,0.0003
738.0,-0.0000
737.8,0.0006
737.6,0.0002
737.4,-0.0002
737.2,-0.0001
737.0,-0.0003
736.8,0.0001
736.6,-0.0001
736.4,-0.0001
736.2,-0.0005
736.0,0.0002
735.8,-0.0000
735.6,0.0003
735.4,-0.0011
735.2,-0.0001
735.0,-0.0005
734.8,-0.0002
734.6,-0.0002
734.4,0.0004
734.2,0.0004
734.0,-0.0006
733.8,-0.0002
733.6,-0.0004
733.4,0.0001
733.2,-0.0006
733.0,-0.0005
732.8,-0.0004
732.6,-0.0005
732.4,-0.0008
732.2,-0.0001
732.0,-0.0008
731.8,0.0003
731.6,0.0006
731.4,0.0001
731.2,-0.0003
731.0,-0.0011
730.8,0.0002
730.6,-0.0007
730.4,0.0004
730.2,-0.0000
730.0,-0.0001
729.8,-0.0000
729.6,0.0002
729.4,-0.0003
729.2,-0.0014
729.0,0.0005
728.8,-0.0001
728.6,-0.0003
728.4,-0.0002
728.2,-0.0000
728.0,-0.0009
727.8,-0.0006
727.6,0.0001
727.4,0.0000
727.2,0.0000
727.0,-0.0005
726.8,-0.0001
726.6,0.0001
726.4,-0.0003
726.2,-0.0005
726.0,-0.0008
725.8,0.0007
725.6,-0.0000
725.4,-0.0005
725.2,0.0000
725.0,0.0001
724.8,-0.0003
724.6,-0.0003
724.4,0.0001
724.2,0.0000
724.0,-0.0006
723.8,-0.0004
723.6,0.0000
723.4,-0.0008
723.2,0.0001
723.0,0.0003
722.8,-0.0000
722.6,-0.0003
722.4,-0.0002
722.2,-0.0002
722.0,0.0001
721.8,-0.0002
721.6,-0.0003
721.4,-0.0001
721.2,0.0003
721.0,0.0005
720.8,0.0003
720.6,-0.0000
720.4,-0.0002
720.2,-0.0004
720.0,-0.0002
719.8,-0.0002
719.6,0.0004
719.4,0.0005
719.2,-0.0001
719.0,0.0012
718.8,-0.0000
718.6,0.0000
718.4,0.0000
718.2,0.0002
718.0,-0.0000
717.8,0.0003
717.6,-0.0001
717.4,0.0001
717.2,-0.0000
717.0,0.0000
716.8,0.0004
716.6,0.0003
716.4,0.0003
716.2,0.0003
716.0,0.0002
715.8,0.0004
715.6,0.0001
715.4,0.0008
715.2,0.0005
715.0,0.0003
714.8,0.0006
714.6,0.0008
714.4,0.0004
714.2,0.0006
714.0,0.0006
713.8,0.0007
713.6,0.0006
713.4,0.0007
713.2,0.0007
713.0,0.0003
712.8,0.0005
712.6,0.0006
712.4,0.0010
712.2,0.0008
712.0,0.0011
711.8,0.0014
711.6,0.0010
711.4,0.0011
711.2,0.0016
711.0,0.0016
710.8,0.0012
710.6,0.0011
710.4,0.0011
710.2,0.0012
710.0,0.0015
709.8,0.0015
709.6,0.0018
709.4,0.0008
709.2,0.0011
709.0,0.0026
708.8,0.0009
708.6,0.0011
708.4,0.0010
708.2,0.0010
708.0,0.0012
707.8,0.0012
707.6,0.0017
707.4,0.0017
707.2,0.0020
707.0,0.0017
706.8,0.0013
706.6,0.0013
706.4,0.0017
706.2,0.0016
706.0,0.0024
705.8,0.0009
705.6,0.0021
705.4,0.0017
705.2,0.0022
705.0,0.0024
704.8,0.0025
704.6,0.0017
704.4,0.0018
704.2,0.0014
704.0,0.0015
703.8,0.0026
703.6,0.0020
703.4,0.0016
703.2,0.0018
703.0,0.0019
702.8,0.0015
702.6,0.0018
702.4,0.0018
702.2,0.0018
702.0,0.0021
701.8,0.0021
701.6,0.0024
701.4,0.0022
701.2,0.0017
701.0,0.0020
700.8,0.0017
700.6,0.0024
700.4,0.0019
700.2,0.0030
700.0,0.0024
699.8,0.0022
699.6,0.0020
699.4,0.0023
699.2,0.0019
699.0,0.0016
698.8,0.0018
698.6,0.0025
698.4,0.0020
698.2,0.0023
698.0,0.0024
697.8,0.0020
697.6,0.0022
697.4,0.0023
697.2,0.0017
697.0,0.0022
696.8,0.0027
696.6,0.0019
696.4,0.0022
696.2,0.0017
696.0,0.0022
695.8,0.0018
695.6,0.0024
695.4,0.0023
695.2,0.0021
695.0,0.0019
694.8,0.0021
694.6,0.0026
694.4,0.0023
694.2,0.0021
694.0,0.0021
693.8,0.0019
693.6,0.0019
693.4,0.0023
693.2,0.0026
693.0,0.0026
692.8,0.0022
692.6,0.0021
692.4,0.0023
692.2,0.0020
692.0,0.0023
691.8,0.0021
691.6,0.0024
691.4,0.0028
691.2,0.0023
691.0,0.0023
690.8,0.0026
690.6,0.0027
690.4,0.0024
690.2,0.0029
690.0,0.0027
689.8,0.0030
689.6,0.0022
689.4,0.0032
689.2,0.0030
689.0,0.0023
688.8,0.0032
688.6,0.0028
688.4,0.0031
688.2,0.0033
688.0,0.0021
687.8,0.0024
687.6,0.0033
687.4,0.0025
687.2,0.0029
687.0,0.0025
686.8,0.0029
686.6,0.0028
686.4,0.0031
686.2,0.0030
686.0,0.0030
685.8,0.0027
685.6,0.0035
685.4,0.0029
685.2,0.0027
685.0,0.0036
684.8,0.0030
684.6,0.0031
684.4,0.0035
684.2,0.0040
684.0,0.0036
683.8,0.0039
683.6,0.0032
683.4,0.0029
683.2,0.0037
683.0,0.0043
682.8,0.0036
682.6,0.0037
682.4,0.0033
682.2,0.0025
682.0,0.0037
681.8,0.0031
681.6,0.0037
681.4,0.0030
681.2,0.0037
681.0,0.0035
680.8,0.0027
680.6,0.0031
680.4,0.0035
680.2,0.0039
680.0,0.0036
679.8,0.0035
679.6,0.0036
679.4,0.0038
679.2,0.0035
679.0,0.0039
678.8,0.0039
678.6,0.0037
678.4,0.0042
678.2,0.0029
678.0,0.0043
677.8,0.0040
677.6,0.0042
677.4,0.0043
677.2,0.0040
677.0,0.0043
676.8,0.0040
676.6,0.0041
676.4,0.0042
676.2,0.0047
676.0,0.0042
675.8,0.0044
675.6,0.0045
675.4,0.0042
675.2,0.0041
675.0,0.0041
674.8,0.0044
674.6,0.0046
674.4,0.0042
674.2,0.0050
674.0,0.0047
673.8,0.0044
673.6,0.0043
673.4,0.0045
673.2,0.0044
673.0,0.0046
672.8,0.0050
672.6,0.0047
672.4,0.0050
672.2,0.0049
672.0,0.0047
671.8,0.0048
671.6,0.0049
671.4,0.0051
671.2,0.0051
671.0,0.0055
670.8,0.0050
670.6,0.0053
670.4,0.0045
670.2,0.0052
670.0,0.0050
669.8,0.0057
669.6,0.0049
669.4,0.0055
669.2,0.0054
669.0,0.0058
668.8,0.0058
668.6,0.0057
668.4,0.0054
668.2,0.0051
668.0,0.0058
667.8,0.0059
667.6,0.0055
667.4,0.0058
667.2,0.0057
667.0,0.0056
666.8,0.0056
666.6,0.0054
666.4,0.0056
666.2,0.0058
666.0,0.0057
665.8,0.0058
665.6,0.0059
665.4,0.0060
665.2,0.0056
665.0,0.0061
664.8,0.0057
664.6,0.0058
664.4,0.0057
664.2,0.0058
664.0,0.0059
663.8,0.0056
663.6,0.0057
663.4,0.0061
663.2,0.0057
663.0,0.0057
662.8,0.0058
662.6,0.0056
662.4,0.0055
662.2,0.0061
662.0,0.0059
661.8,0.0057
661.6,0.0056
661.4,0.0058
661.2,0.0060
661.0,0.0059
660.8,0.0054
660.6,0.0059
660.4,0.0058
660.2,0.0056
660.0,0.0055
659.8,0.0060
659.6,0.0057
659.4,0.0057
659.2,0.0059
659.0,0.0050
658.8,0.0063
658.6,0.0056
658.4,0.0058
658.2,0.0057
658.0,0.0054
657.8,0.0055
657.6,0.0053
657.4,0.0051
657.2,0.0054
657.0,0.0053
656.8,0.0055
656.6,0.0053
656.4,0.0057
656.2,0.0049
656.0,0.0052
655.8,0.0051
655.6,0.0052
655.4,0.0053
655.2,0.0048
655.0,0.0052
654.8,0.0051
654.6,0.0050
654.4,0.0053
654.2,0.0051
654.0,0.0052
653.8,0.0049
653.6,0.0048
653.4,0.0049
653.2,0.0050
653.0,0.0047
652.8,0.0043
652.6,0.0047
652.4,0.0047
652.2,0.0047
652.0,0.0048
651.8,0.0044
651.6,0.0045
651.4,0.0045
651.2,0.0047
651.0,0.0047
650.8,0.0045
650.6,0.0046
650.4,0.0048
650.2,0.0043
650.0,0.0046
649.8,0.0045
649.6,0.0044
649.4,0.0042
649.2,0.0044
649.0,0.0039
648.8,0.0039
648.6,0.0045
648.4,0.0041
648.2,0.0045
648.0,0.0046
647.8,0.0043
647.6,0.0041
647.4,0.0041
647.2,0.0041
647.0,0.0040
646.8,0.0039
646.6,0.0037
646.4,0.0040
646.2,0.0035
646.0,0.0041
645.8,0.0037
645.6,0.0037
645.4,0.0042
645.2,0.0039
645.0,0.0040
644.8,0.0043
644.6,0.0041
644.4,0.0036
644.2,0.0040
644.0,0.0038
643.8,0.0039
643.6,0.0036
643.4,0.0039
643.2,0.0042
643.0,0.0037
642.8,0.0032
642.6,0.0032
642.4,0.0039
642.2,0.0038
642.0,0.0037
641.8,0.0042
641.6,0.0038
641.4,0.0034
641.2,0.0038
641.0,0.0036
640.8,0.0036
640.6,0.0037
640.4,0.0038
640.2,0.0037
640.0,0.0035
639.8,0.0032
639.6,0.0035
639.4,0.0040
639.2,0.0037
639.0,0.0031
638.8,0.0033
638.6,0.0041
638.4,0.0037
638.2,0.0034
638.0,0.0036
637.8,0.0031
637.6,0.0032
637.4,0.0037
637.2,0.0035
637.0,0.0034
636.8,0.0033
636.6,0.0034
636.4,0.0036
636.2,0.0034
636.0,0.0035
635.8,0.0032
635.6,0.0029
635.4,0.0034
635.2,0.0034
635.0,0.0036
634.8,0.0032
634.6,0.0033
634.4,0.0035
634.2,0.0035
634.0,0.0030
633.8,0.0034
633.6,0.0037
633.4,0.0033
633.2,0.0031
633.0,0.0036
632.8,0.0038
632.6,0.0034
632.4,0.0034
632.2,0.0033
632.0,0.0032
631.8,0.0031
631.6,0.0033
631.4,0.0035
631.2,0.0032
631.0,0.0032
630.8,0.0035
630.6,0.0036
630.4,0.0035
630.2,0.0030
630.0,0.0035
629.8,0.0034
629.6,0.0033
629.4,0.0037
629.2,0.0034
629.0,0.0034
628.8,0.0032
628.6,0.0034
628.4,0.0032
628.2,0.0031
628.0,0.0033
627.8,0.0034
627.6,0.0030
627.4,0.0029
627.2,0.0038
627.0,0.0033
626.8,0.0031
626.6,0.0032
626.4,0.0033
626.2,0.0031
626.0,0.0029
625.8,0.0032
625.6,0.0029
625.4,0.0030
625.2,0.0030
625.0,0.0026
624.8,0.0033
624.6,0.0031
624.4,0.0032
624.2,0.0031
624.0,0.0032
623.8,0.0034
623.6,0.0031
623.4,0.0034
623.2,0.0031
623.0,0.0033
622.8,0.0034
622.6,0.0025
622.4,0.0030
622.2,0.0028
622.0,0.0032
621.8,0.0033
621.6,0.0033
621.4,0.0029
621.2,0.0033
621.0,0.0032
620.8,0.0032
620.6,0.0032
620.4,0.0032
620.2,0.0030
620.0,0.0032
619.8,0.0030
619.6,0.0028
619.4,0.0031
619.2,0.0031
619.0,0.0030
618.8,0.0025
618.6,0.0028
618.4,0.0027
618.2,0.0028
618.0,0.0030
617.8,0.0027
617.6,0.0027
617.4,0.0026
617.2,0.0026
617.0,0.0029
616.8,0.0023
616.6,0.0023
616.4,0.0025
616.2,0.0026
616.0,0.0024
615.8,0.0027
615.6,0.0025
615.4,0.0032
615.2,0.0025
615.0,0.0026
614.8,0.0028
614.6,0.0026
614.4,0.0030
614.2,0.0024
614.0,0.0030
613.8,0.0022
613.6,0.0024
613.4,0.0028
613.2,0.0030
613.0,0.0019
612.8,0.0025
612.6,0.0023
612.4,0.0021
612.2,0.0027
612.0,0.0021
611.8,0.0027
611.6,0.0021
611.4,0.0019
611.2,0.0018
611.0,0.0018
610.8,0.0021
610.6,0.0023
610.4,0.0021
610.2,0.0019
610.0,0.0019
609.8,0.0017
609.6,0.0015
609.4,0.0014
609.2,0.0018
609.0,0.0018
608.8,0.0017
608.6,0.0016
608.4,0.0013
608.2,0.0019
608.0,0.0015
607.8,0.0011
607.6,0.0011
607.4,0.0013
607.2,0.0009
607.0,0.0014
606.8,0.0015
606.6,0.0012
606.4,0.0013
606.2,0.0014
606.0,0.0014
605.8,0.0011
605.6,0.0009
605.4,0.0011
605.2,0.0012
605.0,0.0014
604.8,0.0012
604.6,0.0011
604.4,0.0007
604.2,0.0009
604.0,0.0008
603.8,0.0008
603.6,0.0005
603.4,0.0009
603.2,0.0004
603.0,0.0003
602.8,0.0000
602.6,0.0008
602.4,0.0006
602.2,0.0004
602.0,0.0004
601.8,0.0002
601.6,0.0002
601.4,0.0003
601.2,-0.0001
601.0,0.0001
600.8,0.0000
600.6,-0.0002
600.4,-0.0003
600.2,-0.0000
600.0,0.0000
599.8,-0.0002
599.6,-0.0001
599.4,-0.0006
599.2,-0.0002
599.0,-0.0003
598.8,-0.0004
598.6,-0.0001
598.4,-0.0003
598.2,-0.0004
598.0,-0.0007
597.8,-0.0007
597.6,-0.0003
597.4,-0.0008
597.2,-0.0010
597.0,-0.0008
596.8,-0.0011
596.6,-0.0008
596.4,-0.0010
596.2,-0.0010
596.0,-0.0010
595.8,-0.0010
595.6,-0.0011
595.4,-0.0011
595.2,-0.0014
595.0,-0.0014
594.8,-0.0013
594.6,-0.0015
594.4,-0.0019
594.2,-0.0017
594.0,-0.0019
593.8,-0.0017
593.6,-0.0019
593.4,-0.0020
593.2,-0.0020
593.0,-0.0021
592.8,-0.0017
592.6,-0.0022
592.4,-0.0019
592.2,-0.0018
592.0,-0.0022
591.8,-0.0024
591.6,-0.0025
591.4,-0.0022
591.2,-0.0023
591.0,-0.0024
590.8,-0.0023
590.6,-0.0020
590.4,-0.0025
590.2,-0.0024
590.0,-0.0025
589.8,-0.0026
589.6,-0.0021
589.4,-0.0024
589.2,-0.0026
589.0,-0.0030
588.8,-0.0024
588.6,-0.0027
588.4,-0.0027
588.2,-0.0030
588.0,-0.0030
587.8,-0.0027
587.6,-0.0029
587.4,-0.0032
587.2,-0.0032
587.0,-0.0033
586.8,-0.0033
586.6,-0.0031
586.4,-0.0032
586.2,-0.0031
586.0,-0.0034
585.8,-0.0036
585.6,-0.0036
585.4,-0.0037
585.2,-0.0035
585.0,-0.0035
584.8,-0.0036
584.6,-0.0038
584.4,-0.0038
584.2,-0.0039
584.0,-0.0039
583.8,-0.0042
583.6,-0.0040
583.4,-0.0040
583.2,-0.0040
583.0,-0.0045
582.8,-0.0043
582.6,-0.0042
582.4,-0.0045
582.2,-0.0047
582.0,-0.0043
581.8,-0.0045
581.6,-0.0049
581.4,-0.0047
581.2,-0.0049
581.0,-0.0047
580.8,-0.0045
580.6,-0.0045
580.4,-0.0047
580.2,-0.0048
580.0,-0.0047