File: Figure1/UV-vis/Sample338.Sample.csv
Created as New Dataset,
nm,A
800.0,0.0002
799.8,0.0009
799.6,0.0009
799.4,-0.0008
799.2,-0.0004
799.0,-0.0003
798.8,-0.0001
798.6,0.0000
798.4,0.0008
798.2,0.0007
798.0,0.0003
797.8,0.0012
797.6,-0.0002
797.4,-0.0001
797.2,0.0008
797.0,0.0005
796.8,-0.0002
796.6,0.0005
796.4,-0.0000
796.2,-0.0008
796.0,0.0007
795.8,0.0002
795.6,-0.0006
795.4,0.0008
795.2,-0.0000
795.0,0.0003
794.8,-0.0002
794.6,0.0009
794.4,-0.0001
794.2,0.0006
794.0,0.0001
793.8,0.0002
793.6,0.0013
793.4,-0.0008
793.2,0.0010
793.0,-0.0002
792.8,-0.0000
792.6,0.0005
792.4,-0.0001
792.2,0.0007
792.0,0.0002
791.8,0.0008
791.6,-0.0000
791.4,-0.0007
791.2,-0.0005
791.0,0.0008
790.8,0.0006
790.6,0.0009
790.4,0.0005
790.2,0.0007
790.0,0.0006
789.8,-0.0002
789.6,-0.0004
789.4,0.0004
789.2,0.0001
789.0,0.0011
788.8,0.0000
788.6,-0.0003
788.4,0.0002
788.2,-0.0008
788.0,-0.0001
787.8,0.0006
787.6,-0.0005
787.4,0.0006
787.2,0.0003
787.0,0.0010
786.8,0.0007
786.6,-0.0000
786.4,-0.0002
786.2,0.0004
786.0,0.0003
785.8,0.0004
785.6,-0.0004
785.4,-0.0002
785.2,0.0001
785.0,0.0003
784.8,0.0008
784.6,-0.0001
784.4,0.0012
784.2,0.0003
784.0,0.0003
783.8,0.0014
783.6,0.0001
783.4,0.0013
783.2,0.0004
783.0,0.0011
782.8,-0.0000
782.6,0.0004
782.4,0.0007
782.2,0.0001
782.0,0.0010
781.8,0.0013
781.6,-0.0004
781.4,0.0001
781.2,-0.0005
781.0,0.0006
780.8,0.0006
780.6,0.0009
780.4,0.0007
780.2,-0.0002
780.0,0.0011
779.8,0.0008
779.6,0.0001
779.4,0.0001
779.2,0.0007
779.0,0.0004
778.8,0.0009
778.6,0.0007
778.4,0.0008
778.2,0.0011
778.0,0.0005
777.8,0.0010
777.6,0.0007
777.4,0.0011
777.2,0.0012
777.0,0.0011
776.8,0.0002
776.6,0.0014
776.4,0.0003
776.2,0.0006
776.0,0.0003
775.8,0.0010
775.6,0.0004
775.4,0.0007
775.2,0.0011
775.0,-0.0001
774.8,0.0003
774.6,0.0007
774.4,0.0002
774.2,0.0007
774.0,0.0014
773.8,0.0008
773.6,0.0003
773.4,0.0008
773.2,0.0009
773.0,0.0009
772.8,0.0010
772.6,0.0007
772.4,0.0004
772.2,0.0007
772.0,0.0007
771.8,0.0015
771.6,0.0006
771.4,-0.0001
771.2,0.0004
771.0,0.0009
770.8,0.0004
770.6,0.0002
770.4,0.0003
770.2,0.0007
770.0,0.0016
769.8,0.0007
769.6,0.0004
769.4,0.0005
769.2,0.0011
769.0,0.0013
768.8,0.0013
768.6,0.0009
768.4,0.0007
768.2,0.0007
768.0,0.0012
767.8,0.0002
767.6,0.0015
767.4,0.0015
767.2,0.0009
767.0,0.0004
766.8,0.0015
766.6,0.0017
766.4,0.0015
766.2,0.0007
766.0,0.0003
765.8,0.0011
765.6,0.0003
765.4,0.0013
765.2,0.0013
765.0,0.0013
764.8,0.0008
764.6,0.0010
764.4,0.0014
764.2,0.0005
764.0,0.0009
763.8,0.0009
763.6,0.0002
763.4,0.0010
763.2,0.0013
763.0,0.0009
762.8,0.0012
762.6,0.0015
762.4,0.0016
762.2,0.0016
762.0,0.0019
761.8,0.0010
761.6,0.0011
761.4,0.0021
761.2,0.0009
761.0,0.0014
760.8,0.0018
760.6,0.0010
760.4,0.0010
760.2,0.0005
760.0,0.0012
759.8,0.0007
759.6,0.0016
759.4,0.0002
759.2,0.0016
759.0,0.0007
758.8,0.0013
758.6,0.0012
758.4,0.0008
758.2,0.0006
758.0,0.0012
757.8,0.0019
757.6,0.0005
757.4,0.0012
757.2,0.0018
757.0,0.0012
756.8,0.0012
756.6,0.0014
756.4,0.0010
756.2,0.0020
756.0,0.0009
755.8,0.0012
755.6,0.0010
755.4,0.0007
755.2,0.0015
755.0,0.0011
754.8,0.0021
754.6,0.0022
754.4,0.0015
754.2,0.0016
754.0,0.0017
753.8,0.0010
753.6,0.0013
753.4,0.0019
753.2,0.0017
753.0,0.0014
752.8,0.0016
752.6,0.0008
752.4,0.0011
752.2,0.0016
752.0,0.0018
751.8,0.0007
751.6,0.0013
751.4,0.0006
751.2,0.0008
751.0,0.0019
750.8,0.0013
750.6,0.0011
750.4,0.0013
750.2,0.0009
750.0,0.0022
749.8,0.0017
749.6,0.0015
749.4,0.0020
749.2,0.0015
749.0,0.0013
748.8,0.0016
748.6,0.0016
748.4,0.0012
748.2,0.0014
748.0,0.0010
747.8,0.0017
747.6,0.0019
747.4,0.0018
747.2,0.0010
747.0,0.0015
746.8,0.0011
746.6,0.0016
746.4,0.0009
746.2,0.0013
746.0,0.0008
745.8,0.0014
745.6,0.0017
745.4,0.0011
745.2,0.0016
745.0,0.0017
744.8,0.0016
744.6,0.0010
744.4,0.0017
744.2,0.0018
744.0,0.0016
743.8,0.0013
743.6,0.0014
743.4,0.0011
743.2,0.0018
743.0,0.0015
742.8,0.0012
742.6,0.0014
742.4,0.0015
742.2,0.0023
742.0,0.0009
741.8,0.0008
741.6,0.0015
741.4,0.0020
741.2,0.0019
741.0,0.0016
740.8,0.0019
740.6,0.0018
740.4,0.0019
740.2,0.0024
740.0,0.0017
739.8,0.0016
739.6,0.0017
739.4,0.0015
739.2,0.0010
739.0,0.0015
738.8,0.0020
738.6,0.0015
738.4,0.0016
738.2,0.0018
738.0,0.0018
737.8,0.0020
737.6,0.0018
737.4,0.0012
737.2,0.0023
737.0,0.0014
736.8,0.0024
736.6,0.0020
736.4,0.0024
736.2,0.0019
736.0,0.0018
735.8,0.0024
735.6,0.0017
735.4,0.0015
735.2,0.0020
735.0,0.0019
734.8,0.0027
734.6,0.0020
734.4,0.0022
734.2,0.0022
734.0,0.0014
733.8,0.0015
733.6,0.0016
733.4,0.0019
733.2,0.0015
733.0,0.0018
732.8,0.0017
732.6,0.0018
732.4,0.0014
732.2,0.0025
732.0,0.0014
731.8,0.0023
731.6,0.0021
731.4,0.0018
731.2,0.0017
731.0,0.0012
730.8,0.0023
730.6,0.0016
730.4,0.0026
730.2,0.0024
730.0,0.0023
729.8,0.0022
729.6,0.0024
729.4,0.0016
729.2,0.0014
729.0,0.0021
728.8,0.0017
728.6,0.0019
728.4,0.0020
728.2,0.0018
728.0,0.0020
727.8,0.0014
727.6,0.0023
727.4,0.0023
727.2,0.0023
727.0,0.0017
726.8,0.0024
726.6,0.0022
726.4,0.0020
726.2,0.0023
726.0,0.0018
725.8,0.0025
725.6,0.0017
725.4,0.0022
725.2,0.0026
725.0,0.0020
724.8,0.0019
724.6,0.0017
724.4,0.0021
724.2,0.0024
724.0,0.0018
723.8,0.0025
723.6,0.0022
723.4,0.0022
723.2,0.0024
723.0,0.0031
722.8,0.0022
722.6,0.0020
722.4,0.0024
722.2,0.0021
722.0,0.0025
721.8,0.0027
721.6,0.0023
721.4,0.0023
721.2,0.0029
721.0,0.0025
720.8,0.0023
720.6,0.0025
720.4,0.0021
720.2,0.0021
720.0,0.0021
719.8,0.0018
719.6,0.0030
719.4,0.0026
719.2,0.0022
719.0,0.0025
718.8,0.0026
718.6,0.0021
718.4,0.0029
718.2,0.0024
718.0,0.0027
717.8,0.0026
717.6,0.0025
717.4,0.0020
717.2,0.0025
717.0,0.0030
716.8,0.0025
716.6,0.0026
716.4,0.0023
716.2,0.0022
716.0,0.0023
715.8,0.0027
715.6,0.0027
715.4,0.0025
715.2,0.0017
715.0,0.0030
714.8,0.0027
714.6,0.0029
714.4,0.0023
714.2,0.0025
714.0,0.0023
713.8,0.0019
713.6,0.0025
713.4,0.0026
713.2,0.0025
713.0,0.0020
712.8,0.0022
712.6,0.0025
712.4,0.0027
712.2,0.0031
712.0,0.0026
711.8,0.0026
711.6,0.0027
711.4,0.0025
711.2,0.0031
711.0,0.0030
710.8,0.0027
710.6,0.0033
710.4,0.0028
710.2,0.0028
710.0,0.0026
709.8,0.0026
709.6,0.0033
709.4,0.0025
709.2,0.0028
709.0,0.0031
708.8,0.0029
708.6,0.0028
708.4,0.0026
708.2,0.0020
708.0,0.0025
707.8,0.0024
707.6,0.0027
707.4,0.0035
707.2,0.0028
707.0,0.0027
706.8,0.0025
706.6,0.0022
706.4,0.0018
706.2,0.0028
706.0,0.0035
705.8,0.0022
705.6,0.0026
705.4,0.0030
705.2,0.0030
705.0,0.0027
704.8,0.0036
704.6,0.0027
704.4,0.0032
704.2,0.0027
704.0,0.0030
703.8,0.0034
703.6,0.0027
703.4,0.0028
703.2,0.0033
703.0,0.0028
702.8,0.0025
702.6,0.0031
702.4,0.0034
702.2,0.0033
702.0,0.0034
701.8,0.0034
701.6,0.0030
701.4,0.0029
701.2,0.0026
701.0,0.0030
700.8,0.0029
700.6,0.0037
700.4,0.0027
700.2,0.0033
700.0,0.0029
699.8,0.0033
699.6,0.0033
699.4,0.0034
699.2,0.0028
699.0,0.0029
698.8,0.0036
698.6,0.0036
698.4,0.0034
698.2,0.0031
698.0,0.0037
697.8,0.0030
697.6,0.0032
697.4,0.0031
697.2,0.0032
697.0,0.0034
696.8,0.0038
696.6,0.0033
696.4,0.0033
696.2,0.0028
696.0,0.0037
695.8,0.0031
695.6,0.0039
695.4,0.0028
695.2,0.0033
695.0,0.0033
694.8,0.0032
694.6,0.0034
694.4,0.0033
694.2,0.0029
694.0,0.0032
693.8,0.0031
693.6,0.0035
693.4,0.0034
693.2,0.0037
693.0,0.0037
692.8,0.0035
692.6,0.0030
692.4,0.0040
692.2,0.0034
692.0,0.0037
691.8,0.0037
691.6,0.0040
691.4,0.0037
691.2,0.0040
691.0,0.0039
690.8,0.0034
690.6,0.0040
690.4,0.0037
690.2,0.0040
690.0,0.0037
689.8,0.0041
689.6,0.0035
689.4,0.0043
689.2,0.0037
689.0,0.0029
688.8,0.0041
688.6,0.0040
688.4,0.0039
688.2,0.0041
688.0,0.0036
687.8,0.0035
687.6,0.0041
687.4,0.0035
687.2,0.0037
687.0,0.0034
686.8,0.0035
686.6,0.0035
686.4,0.0042
686.2,0.0043
686.0,0.0042
685.8,0.0037
685.6,0.0038
685.4,0.0041
685.2,0.0034
685.0,0.0038
684.8,0.0041
684.6,0.0040
684.4,0.0045
684.2,0.0046
684.0,0.0039
683.8,0.0040
683.6,0.0043
683.4,0.0038
683.2,0.0046
683.0,0.0047
682.8,0.0040
682.6,0.0039
682.4,0.0042
682.2,0.0040
682.0,0.0048
681.8,0.0039
681.6,0.0043
681.4,0.0041
681.2,0.0037
681.0,0.0040
680.8,0.0040
680.6,0.0031
680.4,0.0041
680.2,0.0043
680.0,0.0043
679.8,0.0043
679.6,0.0042
679.4,0.0044
679.2,0.0044
679.0,0.0041
678.8,0.0049
678.6,0.0047
678.4,0.0047
678.2,0.0042
678.0,0.0046
677.8,0.0048
677.6,0.0047
677.4,0.0049
677.2,0.0047
677.0,0.0048
676.8,0.0046
676.6,0.0045
676.4,0.0049
676.2,0.0049
676.0,0.0051
675.8,0.0048
675.6,0.0051
675.4,0.0046
675.2,0.0048
675.0,0.0043
674.8,0.0056
674.6,0.0048
674.4,0.0050
674.2,0.0051
674.0,0.0048
673.8,0.0051
673.6,0.0049
673.4,0.0048
673.2,0.0045
673.0,0.0051
672.8,0.0053
672.6,0.0051
672.4,0.0055
672.2,0.0052
672.0,0.0050
671.8,0.0051
671.6,0.0051
671.4,0.0048
671.2,0.0049
671.0,0.0053
670.8,0.0053
670.6,0.0051
670.4,0.0050
670.2,0.0055
670.0,0.0051
669.8,0.0053
669.6,0.0052
669.4,0.0055
669.2,0.0054
669.0,0.0056
668.8,0.0053
668.6,0.0054
668.4,0.0054
668.2,0.0049
668.0,0.0054
667.8,0.0055
667.6,0.0057
667.4,0.0055
667.2,0.0057
667.0,0.0055
666.8,0.0054
666.6,0.0052
666.4,0.0053
666.2,0.0051
666.0,0.0055
665.8,0.0055
665.6,0.0054
665.4,0.0057
665.2,0.0055
665.0,0.0057
664.8,0.0049
664.6,0.0053
664.4,0.0052
664.2,0.0062
664.0,0.0053
663.8,0.0056
663.6,0.0051
663.4,0.0056
663.2,0.0050
663.0,0.0055
662.8,0.0055
662.6,0.0051
662.4,0.0050
662.2,0.0053
662.0,0.0056
661.8,0.0054
661.6,0.0053
661.4,0.0052
661.2,0.0055
661.0,0.0059
660.8,0.0049
660.6,0.0051
660.4,0.0053
660.2,0.0052
660.0,0.0051
659.8,0.0059
659.6,0.0050
659.4,0.0049
659.2,0.0052
659.0,0.0051
658.8,0.0052
658.6,0.0048
658.4,0.0052
658.2,0.0050
658.0,0.0049
657.8,0.0052
657.6,0.0050
657.4,0.0045
657.2,0.0050
657.0,0.0050
656.8,0.0053
656.6,0.0050
656.4,0.0048
656.2,0.0052
656.0,0.0050
655.8,0.0052
655.6,0.0048
655.4,0.0051
655.2,0.0042
655.0,0.0049
654.8,0.0054
654.6,0.0049
654.4,0.0047
654.2,0.0047
654.0,0.0049
653.8,0.0046
653.6,0.0044
653.4,0.0049
653.2,0.0048
653.0,0.0047
652.8,0.0042
652.6,0.0047
652.4,0.0045
652.2,0.0047
652.0,0.0046
651.8,0.0045
651.6,0.0044
651.4,0.0045
651.2,0.0048
651.0,0.0048
650.8,0.0046
650.6,0.0045
650.4,0.0051
650.2,0.0045
650.0,0.0050
649.8,0.0043
649.6,0.0043
649.4,0.0042
649.2,0.0044
649.0,0.0042
648.8,0.0042
648.6,0.0045
648.4,0.0043
648.2,0.0046
648.0,0.0046
647.8,0.0043
647.6,0.0044
647.4,0.0043
647.2,0.0042
647.0,0.0038
646.8,0.0043
646.6,0.0039
646.4,0.0045
646.2,0.0042
646.0,0.0044
645.8,0.0041
645.6,0.0040
645.4,0.0044
645.2,0.0045
645.0,0.0041
644.8,0.0047
644.6,0.0044
644.4,0.0041
644.2,0.0044
644.0,0.0041
643.8,0.0042
643.6,0.0042
643.4,0.0042
643.2,0.0038
643.0,0.0038
642.8,0.0039
642.6,0.0036
642.4,0.0048
642.2,0.0044
642.0,0.0040
641.8,0.0043
641.6,0.0037
641.4,0.0040
641.2,0.0043
641.0,0.0040
640.8,0.0045
640.6,0.0041
640.4,0.0042
640.2,0.0041
640.0,0.0042
639.8,0.0042
639.6,0.0040
639.4,0.0039
639.2,0.0038
639.0,0.0039
638.8,0.0039
638.6,0.0046
638.4,0.0044
638.2,0.0039
638.0,0.0047
637.8,0.0041
637.6,0.0037
637.4,0.0045
637.2,0.0046
637.0,0.0039
636.8,0.0045
636.6,0.0046
636.4,0.0039
636.2,0.0042
636.0,0.0040
635.8,0.0036
635.6,0.0040
635.4,0.0039
635.2,0.0040
635.0,0.0040
634.8,0.0039
634.6,0.0045
634.4,0.0043
634.2,0.0040
634.0,0.0036
633.8,0.0041
633.6,0.0039
633.4,0.0040
633.2,0.0039
633.0,0.0037
632.8,0.0043
632.6,0.0040
632.4,0.0041
632.2,0.0037
632.0,0.0040
631.8,0.0042
631.6,0.0041
631.4,0.0041
631.2,0.0040
631.0,0.0041
630.8,0.0042
630.6,0.0044
630.4,0.0042
630.2,0.0041
630.0,0.0044
629.8,0.0040
629.6,0.0038
629.4,0.0044
629.2,0.0040
629.0,0.0040
628.8,0.0042
628.6,0.0042
628.4,0.0041
628.2,0.0043
628.0,0.0045
627.8,0.0045
627.6,0.0040
627.4,0.0038
627.2,0.0044
627.0,0.0039
626.8,0.0044
626.6,0.0042
626.4,0.0043
626.2,0.0040
626.0,0.0043
625.8,0.0042
625.6,0.0041
625.4,0.0041
625.2,0.0041
625.0,0.0040
624.8,0.0041
624.6,0.0043
624.4,0.0042
624.2,0.0041
624.0,0.0039
623.8,0.0041
623.6,0.0040
623.4,0.0044
623.2,0.0040
623.0,0.0042
622.8,0.0041
622.6,0.0034
622.4,0.0040
622.2,0.0038
622.0,0.0040
621.8,0.0043
621.6,0.0038
621.4,0.0040
621.2,0.0042
621.0,0.0042
620.8,0.0043
620.6,0.0040
620.4,0.0045
620.2,0.0039
620.0,0.0042
619.8,0.0041
619.6,0.0040
619.4,0.0043
619.2,0.0042
619.0,0.0043
618.8,0.0036
618.6,0.0039
618.4,0.0039
618.2,0.0036
618.0,0.0039
617.8,0.0041
617.6,0.0043
617.4,0.0039
617.2,0.0040
617.0,0.0041
616.8,0.0039
616.6,0.0038
616.4,0.0040
616.2,0.0038
616.0,0.0035
615.8,0.0038
615.6,0.0039
615.4,0.0037
615.2,0.0039
615.0,0.0039
614.8,0.0042
614.6,0.0038
614.4,0.0040
614.2,0.0039
614.0,0.0038
613.8,0.0036
613.6,0.0036
613.4,0.0042
613.2,0.0039
613.0,0.0036
612.8,0.0037
612.6,0.0038
612.4,0.0038
612.2,0.0042
612.0,0.0037
611.8,0.0037
611.6,0.0036
611.4,0.0040
611.2,0.0035
611.0,0.0035
610.8,0.0033
610.6,0.0035
610.4,0.0035
610.2,0.0037
610.0,0.0035
609.8,0.0032
609.6,0.0030
609.4,0.0031
609.2,0.0031
609.0,0.0032
608.8,0.0032
608.6,0.0032
608.4,0.0031
608.2,0.0039
608.0,0.0036
607.8,0.0031
607.6,0.0035
607.4,0.0030
607.2,0.0031
607.0,0.0029
606.8,0.0029
606.6,0.0030
606.4,0.0027
606.2,0.0031
606.0,0.0035
605.8,0.0027
605.6,0.0028
605.4,0.0030
605.2,0.0031
605.0,0.0031
604.8,0.0029
604.6,0.0029
604.4,0.0025
604.2,0.0028
604.0,0.0028
603.8,0.0031
603.6,0.0028
603.4,0.0029
603.2,0.0028
603.0,0.0026
602.8,0.0024
602.6,0.0026
602.4,0.0028
602.2,0.0024
602.0,0.0022
601.8,0.0025
601.6,0.0024
601.4,0.0022
601.2,0.0020
601.0,0.0025
600.8,0.0026
600.6,0.0024
600.4,0.0023
600.2,0.0025
600.0,0.0022
599.8,0.0023
599.6,0.0020
599.4,0.0017
599.2,0.0024
599.0,0.0018
598.8,0.0019
598.6,0.0020
598.4,0.0021
598.2,0.0020
598.0,0.0017
597.8,0.0017
597.6,0.0022
597.4,0.0018
597.2,0.0016
597.0,0.0016
596.8,0.0014
596.6,0.0018
596.4,0.0015
596.2,0.0015
596.0,0.0014
595.8,0.0015
595.6,0.0013
595.4,0.0015
595.2,0.0018
595.0,0.0016
594.8,0.0017
594.6,0.0009
594.4,0.0014
594.2,0.0014
594.0,0.0013
593.8,0.0013
593.6,0.0010
593.4,0.0012
593.2,0.0011
593.0,0.0011
592.8,0.0012
592.6,0.0010
592.4,0.0008
592.2,0.0011
592.0,0.0012
591.8,0.0004
591.6,0.0005
591.4,0.0007
591.2,0.0007
591.0,0.0007
590.8,0.0005
590.6,0.0009
590.4,0.0007
590.2,0.0009
590.0,0.0006
589.8,0.0004
589.6,0.0008
589.4,0.0012
589.2,0.0002
589.0,0.0003
588.8,0.0005
588.6,0.0004
588.4,0.0005
588.2,0.0004
588.0,0.0004
587.8,0.0004
587.6,0.0004
587.4,-0.0003
587.2,0.0002
587.0,0.0004
586.8,0.0002
586.6,0.0003
586.4,0.0006
586.2,0.0001
586.0,0.0001
585.8,-0.0001
585.6,-0.0001
585.4,-0.0003
585.2,-0.0001
585.0,-0.0003
584.8,-0.0000
584.6,-0.0002
584.4,-0.0001
584.2,-0.0006
584.0,-0.0002
583.8,-0.0002
583.6,-0.0002
583.4,-0.0002
583.2,-0.0004
583.0,-0.0005
582.8,-0.0007
582.6,-0.0005
582.4,-0.0006
582.2,-0.0007
582.0,-0.0003
581.8,-0.0007
581.6,-0.0007
581.4,-0.0005
581.2,-0.0007
581.0,-0.0007
580.8,-0.0006
580.6,-0.0010
580.4,-0.0010
580.2,-0.0009
580.0,-0.0011