File: Figure1/UV-vis/Sample340.Sample.csv
Created as New Dataset,
nm,A
800.0,0.0040
799.8,0.0027
799.6,0.0031
799.4,0.0041
799.2,0.0027
799.0,0.0030
798.8,0.0032
798.6,0.0028
798.4,0.0034
798.2,0.0029
798.0,0.0034
797.8,0.0035
797.6,0.0029
797.4,0.0031
797.2,0.0043
797.0,0.0033
796.8,0.0023
796.6,0.0033
796.4,0.0041
796.2,0.0027
796.0,0.0032
795.8,0.0031
795.6,0.0023
795.4,0.0016
795.2,0.0035
795.0,0.0036
794.8,0.0029
794.6,0.0037
794.4,0.0031
794.2,0.0039
794.0,0.0032
793.8,0.0035
793.6,0.0037
793.4,0.0025
793.2,0.0035
793.0,0.0040
792.8,0.0022
792.6,0.0032
792.4,0.0032
792.2,0.0032
792.0,0.0036
791.8,0.0032
791.6,0.0032
791.4,0.0022
791.2,0.0035
791.0,0.0037
790.8,0.0030
790.6,0.0035
790.4,0.0036
790.2,0.0035
790.0,0.0041
789.8,0.0035
789.6,0.0026
789.4,0.0036
789.2,0.0024
789.0,0.0045
788.8,0.0031
788.6,0.0026
788.4,0.0032
788.2,0.0024
788.0,0.0034
787.8,0.0034
787.6,0.0032
787.4,0.0035
787.2,0.0035
787.0,0.0034
786.8,0.0034
786.6,0.0025
786.4,0.0034
786.2,0.0036
786.0,0.0035
785.8,0.0029
785.6,0.0027
785.4,0.0028
785.2,0.0025
785.0,0.0020
784.8,0.0032
784.6,0.0039
784.4,0.0037
784.2,0.0033
784.0,0.0032
783.8,0.0040
783.6,0.0034
783.4,0.0035
783.2,0.0039
783.0,0.0036
782.8,0.0029
782.6,0.0035
782.4,0.0032
782.2,0.0039
782.0,0.0039
781.8,0.0035
781.6,0.0027
781.4,0.0029
781.2,0.0028
781.0,0.0025
780.8,0.0035
780.6,0.0034
780.4,0.0033
780.2,0.0023
780.0,0.0036
779.8,0.0046
779.6,0.0032
779.4,0.0042
779.2,0.0039
779.0,0.0036
778.8,0.0037
778.6,0.0027
778.4,0.0038
778.2,0.0035
778.0,0.0036
777.8,0.0040
777.6,0.0032
777.4,0.0040
777.2,0.0036
777.0,0.0038
776.8,0.0042
776.6,0.0042
776.4,0.0040
776.2,0.0032
776.0,0.0030
775.8,0.0042
775.6,0.0035
775.4,0.0033
775.2,0.0029
775.0,0.0032
774.8,0.0027
774.6,0.0047
774.4,0.0028
774.2,0.0035
774.0,0.0036
773.8,0.0037
773.6,0.0038
773.4,0.0036
773.2,0.0038
773.0,0.0031
772.8,0.0035
772.6,0.0033
772.4,0.0029
772.2,0.0036
772.0,0.0038
771.8,0.0032
771.6,0.0031
771.4,0.0027
771.2,0.0034
771.0,0.0035
770.8,0.0035
770.6,0.0031
770.4,0.0026
770.2,0.0030
770.0,0.0044
769.8,0.0035
769.6,0.0035
769.4,0.0041
769.2,0.0039
769.0,0.0047
768.8,0.0045
768.6,0.0031
768.4,0.0030
768.2,0.0028
768.0,0.0038
767.8,0.0036
767.6,0.0032
767.4,0.0047
767.2,0.0041
767.0,0.0034
766.8,0.0040
766.6,0.0035
766.4,0.0040
766.2,0.0033
766.0,0.0034
765.8,0.0037
765.6,0.0038
765.4,0.0046
765.2,0.0037
765.0,0.0041
764.8,0.0038
764.6,0.0035
764.4,0.0038
764.2,0.0033
764.0,0.0039
763.8,0.0039
763.6,0.0026
763.4,0.0040
763.2,0.0040
763.0,0.0043
762.8,0.0037
762.6,0.0045
762.4,0.0044
762.2,0.0037
762.0,0.0050
761.8,0.0035
761.6,0.0039
761.4,0.0044
761.2,0.0034
761.0,0.0046
760.8,0.0044
760.6,0.0041
760.4,0.0040
760.2,0.0038
760.0,0.0043
759.8,0.0036
759.6,0.0042
759.4,0.0035
759.2,0.0045
759.0,0.0036
758.8,0.0037
758.6,0.0040
758.4,0.0037
758.2,0.0039
758.0,0.0038
757.8,0.0055
757.6,0.0034
757.4,0.0045
757.2,0.0042
757.0,0.0043
756.8,0.0043
756.6,0.0045
756.4,0.0044
756.2,0.0039
756.0,0.0036
755.8,0.0041
755.6,0.0041
755.4,0.0032
755.2,0.0041
755.0,0.0040
754.8,0.0042
754.6,0.0052
754.4,0.0042
754.2,0.0044
754.0,0.0040
753.8,0.0038
753.6,0.0043
753.4,0.0048
753.2,0.0040
753.0,0.0042
752.8,0.0050
752.6,0.0035
752.4,0.0044
752.2,0.0038
752.0,0.0033
751.8,0.0035
751.6,0.0038
751.4,0.0042
751.2,0.0038
751.0,0.0047
750.8,0.0038
750.6,0.0044
750.4,0.0049
750.2,0.0034
750.0,0.0047
749.8,0.0051
749.6,0.0046
749.4,0.0045
749.2,0.0043
749.0,0.0045
748.8,0.0036
748.6,0.0041
748.4,0.0039
748.2,0.0048
748.0,0.0040
747.8,0.0047
747.6,0.0054
747.4,0.0050
747.2,0.0049
747.0,0.0045
746.8,0.0039
746.6,0.0047
746.4,0.0041
746.2,0.0044
746.0,0.0038
745.8,0.0045
745.6,0.0045
745.4,0.0043
745.2,0.0046
745.0,0.0044
744.8,0.0041
744.6,0.0046
744.4,0.0042
744.2,0.0040
744.0,0.0041
743.8,0.0040
743.6,0.0048
743.4,0.0043
743.2,0.0050
743.0,0.0042
742.8,0.0036
742.6,0.0046
742.4,0.0045
742.2,0.0056
742.0,0.0044
741.8,0.0046
741.6,0.0043
741.4,0.0046
741.2,0.0050
741.0,0.0049
740.8,0.0043
740.6,0.0047
740.4,0.0045
740.2,0.0046
740.0,0.0042
739.8,0.0044
739.6,0.0047
739.4,0.0045
739.2,0.0042
739.0,0.0042
738.8,0.0056
738.6,0.0050
738.4,0.0043
738.2,0.0048
738.0,0.0057
737.8,0.0047
737.6,0.0048
737.4,0.0047
737.2,0.0050
737.0,0.0044
736.8,0.0049
736.6,0.0048
736.4,0.0051
736.2,0.0044
736.0,0.0047
735.8,0.0049
735.6,0.0050
735.4,0.0047
735.2,0.0052
735.0,0.0046
734.8,0.0054
734.6,0.0049
734.4,0.0055
734.2,0.0055
734.0,0.0045
733.8,0.0049
733.6,0.0046
733.4,0.0053
733.2,0.0044
733.0,0.0046
732.8,0.0040
732.6,0.0054
732.4,0.0045
732.2,0.0050
732.0,0.0044
731.8,0.0051
731.6,0.0053
731.4,0.0053
731.2,0.0052
731.0,0.0041
730.8,0.0057
730.6,0.0042
730.4,0.0059
730.2,0.0052
730.0,0.0052
729.8,0.0045
729.6,0.0050
729.4,0.0045
729.2,0.0042
729.0,0.0046
728.8,0.0055
728.6,0.0050
728.4,0.0049
728.2,0.0050
728.0,0.0050
727.8,0.0045
727.6,0.0048
727.4,0.0051
727.2,0.0045
727.0,0.0048
726.8,0.0048
726.6,0.0050
726.4,0.0050
726.2,0.0051
726.0,0.0046
725.8,0.0058
725.6,0.0044
725.4,0.0048
725.2,0.0057
725.0,0.0053
724.8,0.0048
724.6,0.0047
724.4,0.0046
724.2,0.0052
724.0,0.0048
723.8,0.0046
723.6,0.0051
723.4,0.0050
723.2,0.0050
723.0,0.0057
722.8,0.0046
722.6,0.0049
722.4,0.0053
722.2,0.0055
722.0,0.0053
721.8,0.0050
721.6,0.0046
721.4,0.0049
721.2,0.0055
721.0,0.0055
720.8,0.0054
720.6,0.0052
720.4,0.0052
720.2,0.0049
720.0,0.0047
719.8,0.0054
719.6,0.0059
719.4,0.0054
719.2,0.0050
719.0,0.0054
718.8,0.0054
718.6,0.0060
718.4,0.0058
718.2,0.0050
718.0,0.0053
717.8,0.0056
717.6,0.0053
717.4,0.0055
717.2,0.0057
717.0,0.0053
716.8,0.0056
716.6,0.0056
716.4,0.0053
716.2,0.0051
716.0,0.0056
715.8,0.0051
715.6,0.0047
715.4,0.0057
715.2,0.0049
715.0,0.0061
714.8,0.0049
714.6,0.0057
714.4,0.0055
714.2,0.0050
714.0,0.0053
713.8,0.0050
713.6,0.0056
713.4,0.0053
713.2,0.0054
713.0,0.0055
712.8,0.0059
712.6,0.0051
712.4,0.0059
712.2,0.0057
712.0,0.0061
711.8,0.0057
711.6,0.0055
711.4,0.0057
711.2,0.0059
711.0,0.0055
710.8,0.0057
710.6,0.0063
710.4,0.0054
710.2,0.0055
710.0,0.0056
709.8,0.0056
709.6,0.0059
709.4,0.0058
709.2,0.0054
709.0,0.0061
708.8,0.0055
708.6,0.0058
708.4,0.0052
708.2,0.0054
708.0,0.0058
707.8,0.0055
707.6,0.0060
707.4,0.0062
707.2,0.0057
707.0,0.0058
706.8,0.0057
706.6,0.0054
706.4,0.0055
706.2,0.0062
706.0,0.0061
705.8,0.0051
705.6,0.0060
705.4,0.0055
705.2,0.0061
705.0,0.0061
704.8,0.0067
704.6,0.0059
704.4,0.0058
704.2,0.0060
704.0,0.0062
703.8,0.0063
703.6,0.0057
703.4,0.0054
703.2,0.0054
703.0,0.0062
702.8,0.0054
702.6,0.0054
702.4,0.0062
702.2,0.0061
702.0,0.0058
701.8,0.0060
701.6,0.0064
701.4,0.0060
701.2,0.0061
701.0,0.0056
700.8,0.0063
700.6,0.0064
700.4,0.0060
700.2,0.0061
700.0,0.0062
699.8,0.0061
699.6,0.0061
699.4,0.0062
699.2,0.0057
699.0,0.0057
698.8,0.0060
698.6,0.0065
698.4,0.0058
698.2,0.0062
698.0,0.0059
697.8,0.0058
697.6,0.0064
697.4,0.0066
697.2,0.0057
697.0,0.0066
696.8,0.0065
696.6,0.0060
696.4,0.0062
696.2,0.0056
696.0,0.0066
695.8,0.0060
695.6,0.0066
695.4,0.0064
695.2,0.0061
695.0,0.0062
694.8,0.0065
694.6,0.0061
694.4,0.0064
694.2,0.0060
694.0,0.0066
693.8,0.0064
693.6,0.0063
693.4,0.0065
693.2,0.0066
693.0,0.0062
692.8,0.0062
692.6,0.0062
692.4,0.0064
692.2,0.0064
692.0,0.0065
691.8,0.0068
691.6,0.0067
691.4,0.0063
691.2,0.0065
691.0,0.0063
690.8,0.0064
690.6,0.0068
690.4,0.0067
690.2,0.0070
690.0,0.0063
689.8,0.0067
689.6,0.0064
689.4,0.0069
689.2,0.0066
689.0,0.0064
688.8,0.0072
688.6,0.0067
688.4,0.0067
688.2,0.0071
688.0,0.0063
687.8,0.0061
687.6,0.0076
687.4,0.0065
687.2,0.0066
687.0,0.0061
686.8,0.0069
686.6,0.0064
686.4,0.0070
686.2,0.0075
686.0,0.0070
685.8,0.0066
685.6,0.0067
685.4,0.0069
685.2,0.0064
685.0,0.0073
684.8,0.0071
684.6,0.0067
684.4,0.0075
684.2,0.0076
684.0,0.0066
683.8,0.0069
683.6,0.0067
683.4,0.0061
683.2,0.0068
683.0,0.0075
682.8,0.0076
682.6,0.0069
682.4,0.0070
682.2,0.0071
682.0,0.0076
681.8,0.0070
681.6,0.0074
681.4,0.0070
681.2,0.0071
681.0,0.0071
680.8,0.0069
680.6,0.0061
680.4,0.0069
680.2,0.0071
680.0,0.0071
679.8,0.0071
679.6,0.0074
679.4,0.0078
679.2,0.0074
679.0,0.0071
678.8,0.0074
678.6,0.0075
678.4,0.0080
678.2,0.0071
678.0,0.0075
677.8,0.0075
677.6,0.0079
677.4,0.0076
677.2,0.0075
677.0,0.0077
676.8,0.0076
676.6,0.0073
676.4,0.0078
676.2,0.0075
676.0,0.0084
675.8,0.0082
675.6,0.0080
675.4,0.0078
675.2,0.0078
675.0,0.0075
674.8,0.0078
674.6,0.0075
674.4,0.0078
674.2,0.0079
674.0,0.0075
673.8,0.0076
673.6,0.0078
673.4,0.0082
673.2,0.0080
673.0,0.0078
672.8,0.0079
672.6,0.0079
672.4,0.0080
672.2,0.0077
672.0,0.0079
671.8,0.0082
671.6,0.0077
671.4,0.0083
671.2,0.0086
671.0,0.0084
670.8,0.0080
670.6,0.0086
670.4,0.0081
670.2,0.0086
670.0,0.0083
669.8,0.0086
669.6,0.0080
669.4,0.0084
669.2,0.0081
669.0,0.0083
668.8,0.0084
668.6,0.0084
668.4,0.0085
668.2,0.0079
668.0,0.0082
667.8,0.0084
667.6,0.0083
667.4,0.0082
667.2,0.0089
667.0,0.0081
666.8,0.0082
666.6,0.0084
666.4,0.0086
666.2,0.0085
666.0,0.0086
665.8,0.0086
665.6,0.0088
665.4,0.0079
665.2,0.0083
665.0,0.0083
664.8,0.0081
664.6,0.0082
664.4,0.0081
664.2,0.0085
664.0,0.0085
663.8,0.0083
663.6,0.0083
663.4,0.0082
663.2,0.0085
663.0,0.0081
662.8,0.0081
662.6,0.0080
662.4,0.0079
662.2,0.0085
662.0,0.0082
661.8,0.0081
661.6,0.0085
661.4,0.0079
661.2,0.0083
661.0,0.0086
660.8,0.0075
660.6,0.0079
660.4,0.0083
660.2,0.0081
660.0,0.0081
659.8,0.0083
659.6,0.0081
659.4,0.0077
659.2,0.0085
659.0,0.0079
658.8,0.0088
658.6,0.0078
658.4,0.0082
658.2,0.0084
658.0,0.0081
657.8,0.0083
657.6,0.0081
657.4,0.0076
657.2,0.0078
657.0,0.0079
656.8,0.0081
656.6,0.0083
656.4,0.0077
656.2,0.0080
656.0,0.0075
655.8,0.0080
655.6,0.0083
655.4,0.0074
655.2,0.0078
655.0,0.0081
654.8,0.0081
654.6,0.0076
654.4,0.0078
654.2,0.0078
654.0,0.0076
653.8,0.0077
653.6,0.0074
653.4,0.0073
653.2,0.0076
653.0,0.0080
652.8,0.0069
652.6,0.0072
652.4,0.0071
652.2,0.0075
652.0,0.0075
651.8,0.0074
651.6,0.0074
651.4,0.0077
651.2,0.0074
651.0,0.0075
650.8,0.0072
650.6,0.0075
650.4,0.0076
650.2,0.0074
650.0,0.0076
649.8,0.0073
649.6,0.0072
649.4,0.0072
649.2,0.0071
649.0,0.0069
648.8,0.0069
648.6,0.0072
648.4,0.0070
648.2,0.0071
648.0,0.0073
647.8,0.0074
647.6,0.0074
647.4,0.0071
647.2,0.0072
647.0,0.0072
646.8,0.0070
646.6,0.0070
646.4,0.0074
646.2,0.0068
646.0,0.0071
645.8,0.0071
645.6,0.0069
645.4,0.0071
645.2,0.0068
645.0,0.0072
644.8,0.0076
644.6,0.0071
644.4,0.0070
644.2,0.0072
644.0,0.0067
643.8,0.0071
643.6,0.0070
643.4,0.0068
643.2,0.0070
643.0,0.0068
642.8,0.0067
642.6,0.0067
642.4,0.0070
642.2,0.0071
642.0,0.0067
641.8,0.0073
641.6,0.0070
641.4,0.0069
641.2,0.0073
641.0,0.0069
640.8,0.0073
640.6,0.0070
640.4,0.0071
640.2,0.0071
640.0,0.0068
639.8,0.0071
639.6,0.0067
639.4,0.0074
639.2,0.0070
639.0,0.0068
638.8,0.0069
638.6,0.0075
638.4,0.0072
638.2,0.0068
638.0,0.0071
637.8,0.0072
637.6,0.0064
637.4,0.0071
637.2,0.0071
637.0,0.0069
636.8,0.0070
636.6,0.0076
636.4,0.0070
636.2,0.0070
636.0,0.0070
635.8,0.0073
635.6,0.0070
635.4,0.0069
635.2,0.0075
635.0,0.0075
634.8,0.0067
634.6,0.0066
634.4,0.0068
634.2,0.0072
634.0,0.0068
633.8,0.0072
633.6,0.0069
633.4,0.0072
633.2,0.0070
633.0,0.0071
632.8,0.0072
632.6,0.0070
632.4,0.0075
632.2,0.0065
632.0,0.0071
631.8,0.0073
631.6,0.0071
631.4,0.0075
631.2,0.0069
631.0,0.0072
630.8,0.0071
630.6,0.0073
630.4,0.0068
630.2,0.0071
630.0,0.0069
629.8,0.0070
629.6,0.0067
629.4,0.0073
629.2,0.0074
629.0,0.0072
628.8,0.0073
628.6,0.0070
628.4,0.0072
628.2,0.0072
628.0,0.0072
627.8,0.0075
627.6,0.0070
627.4,0.0070
627.2,0.0074
627.0,0.0069
626.8,0.0070
626.6,0.0066
626.4,0.0070
626.2,0.0068
626.0,0.0067
625.8,0.0070
625.6,0.0068
625.4,0.0070
625.2,0.0071
625.0,0.0066
624.8,0.0076
624.6,0.0069
624.4,0.0072
624.2,0.0072
624.0,0.0070
623.8,0.0070
623.6,0.0070
623.4,0.0074
623.2,0.0072
623.0,0.0068
622.8,0.0072
622.6,0.0063
622.4,0.0071
622.2,0.0069
622.0,0.0072
621.8,0.0073
621.6,0.0071
621.4,0.0068
621.2,0.0074
621.0,0.0073
620.8,0.0076
620.6,0.0072
620.4,0.0072
620.2,0.0069
620.0,0.0073
619.8,0.0070
619.6,0.0072
619.4,0.0069
619.2,0.0070
619.0,0.0072
618.8,0.0064
618.6,0.0072
618.4,0.0069
618.2,0.0068
618.0,0.0072
617.8,0.0068
617.6,0.0070
617.4,0.0066
617.2,0.0068
617.0,0.0073
616.8,0.0067
616.6,0.0070
616.4,0.0065
616.2,0.0071
616.0,0.0069
615.8,0.0068
615.6,0.0071
615.4,0.0068
615.2,0.0068
615.0,0.0064
614.8,0.0068
614.6,0.0067
614.4,0.0075
614.2,0.0067
614.0,0.0068
613.8,0.0065
613.6,0.0066
613.4,0.0066
613.2,0.0068
613.0,0.0066
612.8,0.0069
612.6,0.0068
612.4,0.0062
612.2,0.0071
612.0,0.0066
611.8,0.0063
611.6,0.0062
611.4,0.0066
611.2,0.0066
611.0,0.0063
610.8,0.0061
610.6,0.0067
610.4,0.0062
610.2,0.0064
610.0,0.0066
609.8,0.0060
609.6,0.0061
609.4,0.0061
609.2,0.0063
609.0,0.0064
608.8,0.0064
608.6,0.0063
608.4,0.0064
608.2,0.0065
608.0,0.0065
607.8,0.0060
607.6,0.0058
607.4,0.0059
607.2,0.0057
607.0,0.0058
606.8,0.0058
606.6,0.0059
606.4,0.0059
606.2,0.0060
606.0,0.0060
605.8,0.0056
605.6,0.0056
605.4,0.0060
605.2,0.0062
605.0,0.0064
604.8,0.0061
604.6,0.0059
604.4,0.0055
604.2,0.0055
604.0,0.0055
603.8,0.0059
603.6,0.0057
603.4,0.0057
603.2,0.0054
603.0,0.0054
602.8,0.0052
602.6,0.0055
602.4,0.0055
602.2,0.0052
602.0,0.0054
601.8,0.0056
601.6,0.0055
601.4,0.0053
601.2,0.0050
601.0,0.0054
600.8,0.0050
600.6,0.0052
600.4,0.0052
600.2,0.0052
600.0,0.0053
599.8,0.0051
599.6,0.0050
599.4,0.0045
599.2,0.0052
599.0,0.0049
598.8,0.0046
598.6,0.0049
598.4,0.0049
598.2,0.0046
598.0,0.0047
597.8,0.0044
597.6,0.0047
597.4,0.0044
597.2,0.0043
597.0,0.0043
596.8,0.0042
596.6,0.0047
596.4,0.0043
596.2,0.0042
596.0,0.0042
595.8,0.0043
595.6,0.0046
595.4,0.0047
595.2,0.0047
595.0,0.0044
594.8,0.0045
594.6,0.0040
594.4,0.0041
594.2,0.0044
594.0,0.0042
593.8,0.0042
593.6,0.0040
593.4,0.0036
593.2,0.0036
593.0,0.0038
592.8,0.0036
592.6,0.0036
592.4,0.0037
592.2,0.0038
592.0,0.0039
591.8,0.0037
591.6,0.0035
591.4,0.0038
591.2,0.0036
591.0,0.0034
590.8,0.0036
590.6,0.0035
590.4,0.0036
590.2,0.0037
590.0,0.0036
589.8,0.0034
589.6,0.0039
589.4,0.0038
589.2,0.0033
589.0,0.0032
588.8,0.0034
588.6,0.0032
588.4,0.0035
588.2,0.0030
588.0,0.0033
587.8,0.0033
587.6,0.0029
587.4,0.0026
587.2,0.0033
587.0,0.0026
586.8,0.0031
586.6,0.0029
586.4,0.0028
586.2,0.0028
586.0,0.0031
585.8,0.0026
585.6,0.0030
585.4,0.0028
585.2,0.0029
585.0,0.0028
584.8,0.0031
584.6,0.0026
584.4,0.0033
584.2,0.0028
584.0,0.0029
583.8,0.0026
583.6,0.0025
583.4,0.0028
583.2,0.0023
583.0,0.0026
582.8,0.0024
582.6,0.0026
582.4,0.0021
582.2,0.0022
582.0,0.0024
581.8,0.0021
581.6,0.0021
581.4,0.0024
581.2,0.0019
581.0,0.0022
580.8,0.0025
580.6,0.0022
580.4,0.0021
580.2,0.0022
580.0,0.0022