File: Figure1/UV-vis/Sample350.Sample.csv
Created as New Dataset,
nm,A
800.0,0.0081
799.8,0.0079
799.6,0.0086
799.4,0.0087
799.2,0.0081
799.0,0.0084
798.8,0.0080
798.6,0.0069
798.4,0.0084
798.2,0.0071
798.0,0.0084
797.8,0.0089
797.6,0.0070
797.4,0.0082
797.2,0.0086
797.0,0.0085
796.8,0.0083
796.6,0.0084
796.4,0.0084
796.2,0.0078
796.0,0.0089
795.8,0.0088
795.6,0.0077
795.4,0.0072
795.2,0.0086
795.0,0.0082
794.8,0.0075
794.6,0.0079
794.4,0.0078
794.2,0.0079
794.0,0.0076
793.8,0.0088
793.6,0.0086
793.4,0.0071
793.2,0.0083
793.0,0.0079
792.8,0.0078
792.6,0.0079
792.4,0.0081
792.2,0.0086
792.0,0.0082
791.8,0.0082
791.6,0.0078
791.4,0.0072
791.2,0.0086
791.0,0.0088
790.8,0.0078
790.6,0.0090
790.4,0.0075
790.2,0.0093
790.0,0.0092
789.8,0.0076
789.6,0.0077
789.4,0.0084
789.2,0.0085
789.0,0.0092
788.8,0.0079
788.6,0.0082
788.4,0.0084
788.2,0.0082
788.0,0.0079
787.8,0.0088
787.6,0.0085
787.4,0.0084
787.2,0.0085
787.0,0.0084
786.8,0.0086
786.6,0.0086
786.4,0.0082
786.2,0.0084
786.0,0.0075
785.8,0.0078
785.6,0.0078
785.4,0.0083
785.2,0.0076
785.0,0.0071
784.8,0.0091
784.6,0.0077
784.4,0.0089
784.2,0.0079
784.0,0.0089
783.8,0.0088
783.6,0.0089
783.4,0.0089
783.2,0.0081
783.0,0.0089
782.8,0.0077
782.6,0.0087
782.4,0.0076
782.2,0.0080
782.0,0.0093
781.8,0.0095
781.6,0.0080
781.4,0.0079
781.2,0.0076
781.0,0.0080
780.8,0.0078
780.6,0.0085
780.4,0.0083
780.2,0.0079
780.0,0.0088
779.8,0.0085
779.6,0.0090
779.4,0.0097
779.2,0.0087
779.0,0.0092
778.8,0.0088
778.6,0.0083
778.4,0.0081
778.2,0.0098
778.0,0.0080
777.8,0.0085
777.6,0.0084
777.4,0.0091
777.2,0.0091
777.0,0.0087
776.8,0.0086
776.6,0.0090
776.4,0.0082
776.2,0.0078
776.0,0.0077
775.8,0.0089
775.6,0.0081
775.4,0.0080
775.2,0.0084
775.0,0.0075
774.8,0.0083
774.6,0.0092
774.4,0.0083
774.2,0.0088
774.0,0.0081
773.8,0.0084
773.6,0.0075
773.4,0.0088
773.2,0.0089
773.0,0.0091
772.8,0.0085
772.6,0.0084
772.4,0.0085
772.2,0.0087
772.0,0.0085
771.8,0.0092
771.6,0.0082
771.4,0.0085
771.2,0.0081
771.0,0.0088
770.8,0.0085
770.6,0.0092
770.4,0.0081
770.2,0.0082
770.0,0.0099
769.8,0.0085
769.6,0.0079
769.4,0.0091
769.2,0.0090
769.0,0.0082
768.8,0.0090
768.6,0.0081
768.4,0.0078
768.2,0.0079
768.0,0.0087
767.8,0.0085
767.6,0.0089
767.4,0.0093
767.2,0.0089
767.0,0.0084
766.8,0.0094
766.6,0.0090
766.4,0.0095
766.2,0.0093
766.0,0.0088
765.8,0.0093
765.6,0.0089
765.4,0.0090
765.2,0.0092
765.0,0.0095
764.8,0.0085
764.6,0.0082
764.4,0.0083
764.2,0.0078
764.0,0.0091
763.8,0.0087
763.6,0.0084
763.4,0.0095
763.2,0.0096
763.0,0.0091
762.8,0.0090
762.6,0.0088
762.4,0.0097
762.2,0.0094
762.0,0.0095
761.8,0.0089
761.6,0.0094
761.4,0.0095
761.2,0.0083
761.0,0.0098
760.8,0.0090
760.6,0.0097
760.4,0.0089
760.2,0.0089
760.0,0.0091
759.8,0.0091
759.6,0.0090
759.4,0.0084
759.2,0.0086
759.0,0.0081
758.8,0.0085
758.6,0.0095
758.4,0.0094
758.2,0.0094
758.0,0.0098
757.8,0.0101
757.6,0.0093
757.4,0.0098
757.2,0.0100
757.0,0.0097
756.8,0.0086
756.6,0.0094
756.4,0.0090
756.2,0.0091
756.0,0.0088
755.8,0.0092
755.6,0.0085
755.4,0.0088
755.2,0.0093
755.0,0.0089
754.8,0.0090
754.6,0.0107
754.4,0.0092
754.2,0.0098
754.0,0.0097
753.8,0.0090
753.6,0.0093
753.4,0.0094
753.2,0.0084
753.0,0.0083
752.8,0.0096
752.6,0.0089
752.4,0.0091
752.2,0.0090
752.0,0.0089
751.8,0.0089
751.6,0.0091
751.4,0.0090
751.2,0.0088
751.0,0.0095
750.8,0.0091
750.6,0.0094
750.4,0.0095
750.2,0.0089
750.0,0.0098
749.8,0.0094
749.6,0.0098
749.4,0.0098
749.2,0.0101
749.0,0.0091
748.8,0.0092
748.6,0.0093
748.4,0.0091
748.2,0.0090
748.0,0.0087
747.8,0.0099
747.6,0.0099
747.4,0.0100
747.2,0.0091
747.0,0.0091
746.8,0.0091
746.6,0.0093
746.4,0.0085
746.2,0.0097
746.0,0.0087
745.8,0.0094
745.6,0.0096
745.4,0.0096
745.2,0.0096
745.0,0.0101
744.8,0.0096
744.6,0.0096
744.4,0.0092
744.2,0.0094
744.0,0.0094
743.8,0.0093
743.6,0.0093
743.4,0.0090
743.2,0.0100
743.0,0.0095
742.8,0.0089
742.6,0.0091
742.4,0.0097
742.2,0.0093
742.0,0.0096
741.8,0.0094
741.6,0.0096
741.4,0.0099
741.2,0.0098
741.0,0.0098
740.8,0.0093
740.6,0.0094
740.4,0.0096
740.2,0.0098
740.0,0.0088
739.8,0.0095
739.6,0.0104
739.4,0.0098
739.2,0.0095
739.0,0.0096
738.8,0.0103
738.6,0.0101
738.4,0.0097
738.2,0.0100
738.0,0.0098
737.8,0.0094
737.6,0.0095
737.4,0.0091
737.2,0.0101
737.0,0.0097
736.8,0.0097
736.6,0.0097
736.4,0.0097
736.2,0.0101
736.0,0.0099
735.8,0.0100
735.6,0.0100
735.4,0.0098
735.2,0.0106
735.0,0.0097
734.8,0.0094
734.6,0.0103
734.4,0.0099
734.2,0.0100
734.0,0.0093
733.8,0.0098
733.6,0.0099
733.4,0.0106
733.2,0.0094
733.0,0.0101
732.8,0.0094
732.6,0.0097
732.4,0.0099
732.2,0.0103
732.0,0.0100
731.8,0.0108
731.6,0.0103
731.4,0.0102
731.2,0.0095
731.0,0.0092
730.8,0.0102
730.6,0.0094
730.4,0.0103
730.2,0.0093
730.0,0.0102
729.8,0.0095
729.6,0.0104
729.4,0.0097
729.2,0.0097
729.0,0.0096
728.8,0.0102
728.6,0.0099
728.4,0.0098
728.2,0.0102
728.0,0.0096
727.8,0.0099
727.6,0.0104
727.4,0.0105
727.2,0.0102
727.0,0.0100
726.8,0.0098
726.6,0.0102
726.4,0.0098
726.2,0.0105
726.0,0.0100
725.8,0.0109
725.6,0.0106
725.4,0.0098
725.2,0.0105
725.0,0.0104
724.8,0.0095
724.6,0.0100
724.4,0.0096
724.2,0.0105
724.0,0.0098
723.8,0.0102
723.6,0.0101
723.4,0.0097
723.2,0.0107
723.0,0.0112
722.8,0.0107
722.6,0.0100
722.4,0.0108
722.2,0.0099
722.0,0.0107
721.8,0.0102
721.6,0.0105
721.4,0.0102
721.2,0.0110
721.0,0.0108
720.8,0.0099
720.6,0.0105
720.4,0.0099
720.2,0.0101
720.0,0.0103
719.8,0.0103
719.6,0.0110
719.4,0.0108
719.2,0.0100
719.0,0.0108
718.8,0.0104
718.6,0.0104
718.4,0.0106
718.2,0.0104
718.0,0.0109
717.8,0.0110
717.6,0.0106
717.4,0.0107
717.2,0.0107
717.0,0.0107
716.8,0.0110
716.6,0.0108
716.4,0.0105
716.2,0.0104
716.0,0.0106
715.8,0.0105
715.6,0.0105
715.4,0.0110
715.2,0.0105
715.0,0.0108
714.8,0.0103
714.6,0.0110
714.4,0.0105
714.2,0.0111
714.0,0.0105
713.8,0.0109
713.6,0.0107
713.4,0.0109
713.2,0.0106
713.0,0.0108
712.8,0.0103
712.6,0.0105
712.4,0.0112
712.2,0.0110
712.0,0.0119
711.8,0.0107
711.6,0.0110
711.4,0.0106
711.2,0.0112
711.0,0.0110
710.8,0.0110
710.6,0.0115
710.4,0.0110
710.2,0.0110
710.0,0.0109
709.8,0.0111
709.6,0.0116
709.4,0.0111
709.2,0.0114
709.0,0.0116
708.8,0.0108
708.6,0.0112
708.4,0.0107
708.2,0.0110
708.0,0.0115
707.8,0.0113
707.6,0.0116
707.4,0.0112
707.2,0.0110
707.0,0.0116
706.8,0.0109
706.6,0.0109
706.4,0.0109
706.2,0.0115
706.0,0.0121
705.8,0.0111
705.6,0.0110
705.4,0.0110
705.2,0.0116
705.0,0.0117
704.8,0.0122
704.6,0.0113
704.4,0.0117
704.2,0.0111
704.0,0.0117
703.8,0.0117
703.6,0.0108
703.4,0.0109
703.2,0.0116
703.0,0.0114
702.8,0.0110
702.6,0.0114
702.4,0.0113
702.2,0.0118
702.0,0.0116
701.8,0.0116
701.6,0.0123
701.4,0.0122
701.2,0.0113
701.0,0.0113
700.8,0.0116
700.6,0.0124
700.4,0.0120
700.2,0.0122
700.0,0.0117
699.8,0.0122
699.6,0.0119
699.4,0.0124
699.2,0.0117
699.0,0.0120
698.8,0.0119
698.6,0.0121
698.4,0.0121
698.2,0.0122
698.0,0.0123
697.8,0.0120
697.6,0.0121
697.4,0.0125
697.2,0.0120
697.0,0.0120
696.8,0.0121
696.6,0.0121
696.4,0.0122
696.2,0.0118
696.0,0.0124
695.8,0.0121
695.6,0.0129
695.4,0.0121
695.2,0.0124
695.0,0.0118
694.8,0.0119
694.6,0.0123
694.4,0.0123
694.2,0.0120
694.0,0.0127
693.8,0.0128
693.6,0.0125
693.4,0.0128
693.2,0.0128
693.0,0.0126
692.8,0.0125
692.6,0.0126
692.4,0.0129
692.2,0.0127
692.0,0.0129
691.8,0.0124
691.6,0.0129
691.4,0.0128
691.2,0.0131
691.0,0.0128
690.8,0.0130
690.6,0.0127
690.4,0.0130
690.2,0.0134
690.0,0.0127
689.8,0.0130
689.6,0.0128
689.4,0.0138
689.2,0.0129
689.0,0.0126
688.8,0.0128
688.6,0.0131
688.4,0.0132
688.2,0.0133
688.0,0.0127
687.8,0.0131
687.6,0.0135
687.4,0.0128
687.2,0.0131
687.0,0.0125
686.8,0.0131
686.6,0.0133
686.4,0.0133
686.2,0.0138
686.0,0.0135
685.8,0.0134
685.6,0.0132
685.4,0.0133
685.2,0.0132
685.0,0.0133
684.8,0.0137
684.6,0.0133
684.4,0.0136
684.2,0.0143
684.0,0.0134
683.8,0.0133
683.6,0.0139
683.4,0.0136
683.2,0.0139
683.0,0.0145
682.8,0.0139
682.6,0.0139
682.4,0.0141
682.2,0.0135
682.0,0.0144
681.8,0.0134
681.6,0.0138
681.4,0.0140
681.2,0.0143
681.0,0.0142
680.8,0.0136
680.6,0.0137
680.4,0.0143
680.2,0.0144
680.0,0.0140
679.8,0.0139
679.6,0.0142
679.4,0.0145
679.2,0.0142
679.0,0.0145
678.8,0.0147
678.6,0.0145
678.4,0.0145
678.2,0.0142
678.0,0.0148
677.8,0.0150
677.6,0.0144
677.4,0.0150
677.2,0.0149
677.0,0.0148
676.8,0.0148
676.6,0.0143
676.4,0.0150
676.2,0.0150
676.0,0.0152
675.8,0.0152
675.6,0.0151
675.4,0.0148
675.2,0.0154
675.0,0.0149
674.8,0.0152
674.6,0.0151
674.4,0.0152
674.2,0.0156
674.0,0.0151
673.8,0.0152
673.6,0.0150
673.4,0.0152
673.2,0.0152
673.0,0.0154
672.8,0.0153
672.6,0.0155
672.4,0.0156
672.2,0.0153
672.0,0.0156
671.8,0.0156
671.6,0.0155
671.4,0.0157
671.2,0.0159
671.0,0.0156
670.8,0.0158
670.6,0.0157
670.4,0.0160
670.2,0.0159
670.0,0.0156
669.8,0.0158
669.6,0.0156
669.4,0.0160
669.2,0.0160
669.0,0.0161
668.8,0.0161
668.6,0.0161
668.4,0.0159
668.2,0.0156
668.0,0.0160
667.8,0.0164
667.6,0.0161
667.4,0.0164
667.2,0.0165
667.0,0.0165
666.8,0.0163
666.6,0.0161
666.4,0.0162
666.2,0.0165
666.0,0.0162
665.8,0.0163
665.6,0.0161
665.4,0.0160
665.2,0.0160
665.0,0.0162
664.8,0.0158
664.6,0.0159
664.4,0.0156
664.2,0.0159
664.0,0.0158
663.8,0.0157
663.6,0.0153
663.4,0.0163
663.2,0.0156
663.0,0.0157
662.8,0.0156
662.6,0.0155
662.4,0.0158
662.2,0.0160
662.0,0.0160
661.8,0.0157
661.6,0.0160
661.4,0.0158
661.2,0.0163
661.0,0.0160
660.8,0.0150
660.6,0.0153
660.4,0.0155
660.2,0.0155
660.0,0.0157
659.8,0.0159
659.6,0.0156
659.4,0.0151
659.2,0.0159
659.0,0.0155
658.8,0.0156
658.6,0.0149
658.4,0.0152
658.2,0.0154
658.0,0.0149
657.8,0.0157
657.6,0.0149
657.4,0.0151
657.2,0.0150
657.0,0.0155
656.8,0.0154
656.6,0.0152
656.4,0.0149
656.2,0.0149
656.0,0.0148
655.8,0.0149
655.6,0.0151
655.4,0.0146
655.2,0.0147
655.0,0.0151
654.8,0.0152
654.6,0.0150
654.4,0.0154
654.2,0.0152
654.0,0.0151
653.8,0.0149
653.6,0.0144
653.4,0.0147
653.2,0.0149
653.0,0.0145
652.8,0.0144
652.6,0.0147
652.4,0.0148
652.2,0.0148
652.0,0.0150
651.8,0.0145
651.6,0.0145
651.4,0.0146
651.2,0.0147
651.0,0.0149
650.8,0.0144
650.6,0.0150
650.4,0.0150
650.2,0.0147
650.0,0.0146
649.8,0.0145
649.6,0.0144
649.4,0.0141
649.2,0.0148
649.0,0.0144
648.8,0.0145
648.6,0.0145
648.4,0.0144
648.2,0.0148
648.0,0.0147
647.8,0.0146
647.6,0.0145
647.4,0.0148
647.2,0.0145
647.0,0.0145
646.8,0.0146
646.6,0.0143
646.4,0.0145
646.2,0.0141
646.0,0.0147
645.8,0.0148
645.6,0.0141
645.4,0.0142
645.2,0.0146
645.0,0.0145
644.8,0.0147
644.6,0.0147
644.4,0.0147
644.2,0.0148
644.0,0.0146
643.8,0.0146
643.6,0.0143
643.4,0.0144
643.2,0.0145
643.0,0.0146
642.8,0.0146
642.6,0.0142
642.4,0.0151
642.2,0.0147
642.0,0.0147
641.8,0.0150
641.6,0.0146
641.4,0.0145
641.2,0.0147
641.0,0.0147
640.8,0.0150
640.6,0.0148
640.4,0.0150
640.2,0.0148
640.0,0.0150
639.8,0.0149
639.6,0.0147
639.4,0.0151
639.2,0.0151
639.0,0.0149
638.8,0.0151
638.6,0.0153
638.4,0.0150
638.2,0.0145
638.0,0.0149
637.8,0.0151
637.6,0.0142
637.4,0.0151
637.2,0.0150
637.0,0.0149
636.8,0.0155
636.6,0.0153
636.4,0.0149
636.2,0.0152
636.0,0.0150
635.8,0.0153
635.6,0.0150
635.4,0.0150
635.2,0.0157
635.0,0.0155
634.8,0.0152
634.6,0.0151
634.4,0.0148
634.2,0.0154
634.0,0.0150
633.8,0.0154
633.6,0.0157
633.4,0.0156
633.2,0.0151
633.0,0.0154
632.8,0.0160
632.6,0.0155
632.4,0.0157
632.2,0.0154
632.0,0.0156
631.8,0.0158
631.6,0.0159
631.4,0.0158
631.2,0.0155
631.0,0.0159
630.8,0.0158
630.6,0.0159
630.4,0.0157
630.2,0.0156
630.0,0.0159
629.8,0.0158
629.6,0.0157
629.4,0.0159
629.2,0.0161
629.0,0.0157
628.8,0.0160
628.6,0.0161
628.4,0.0160
628.2,0.0157
628.0,0.0159
627.8,0.0162
627.6,0.0158
627.4,0.0160
627.2,0.0166
627.0,0.0160
626.8,0.0160
626.6,0.0162
626.4,0.0165
626.2,0.0162
626.0,0.0163
625.8,0.0165
625.6,0.0163
625.4,0.0164
625.2,0.0162
625.0,0.0160
624.8,0.0162
624.6,0.0162
624.4,0.0161
624.2,0.0163
624.0,0.0164
623.8,0.0166
623.6,0.0165
623.4,0.0165
623.2,0.0165
623.0,0.0164
622.8,0.0164
622.6,0.0156
622.4,0.0162
622.2,0.0159
622.0,0.0165
621.8,0.0166
621.6,0.0163
621.4,0.0163
621.2,0.0166
621.0,0.0166
620.8,0.0172
620.6,0.0167
620.4,0.0169
620.2,0.0164
620.0,0.0168
619.8,0.0166
619.6,0.0166
619.4,0.0169
619.2,0.0168
619.0,0.0163
618.8,0.0162
618.6,0.0162
618.4,0.0160
618.2,0.0162
618.0,0.0169
617.8,0.0169
617.6,0.0170
617.4,0.0165
617.2,0.0171
617.0,0.0167
616.8,0.0164
616.6,0.0165
616.4,0.0165
616.2,0.0166
616.0,0.0163
615.8,0.0162
615.6,0.0161
615.4,0.0166
615.2,0.0162
615.0,0.0165
614.8,0.0168
614.6,0.0167
614.4,0.0166
614.2,0.0162
614.0,0.0163
613.8,0.0160
613.6,0.0160
613.4,0.0164
613.2,0.0168
613.0,0.0154
612.8,0.0163
612.6,0.0157
612.4,0.0158
612.2,0.0160
612.0,0.0162
611.8,0.0158
611.6,0.0157
611.4,0.0160
611.2,0.0161
611.0,0.0163
610.8,0.0160
610.6,0.0160
610.4,0.0158
610.2,0.0162
610.0,0.0162
609.8,0.0156
609.6,0.0159
609.4,0.0153
609.2,0.0156
609.0,0.0160
608.8,0.0159
608.6,0.0156
608.4,0.0156
608.2,0.0159
608.0,0.0159
607.8,0.0152
607.6,0.0157
607.4,0.0155
607.2,0.0154
607.0,0.0156
606.8,0.0155
606.6,0.0150
606.4,0.0153
606.2,0.0154
606.0,0.0154
605.8,0.0152
605.6,0.0151
605.4,0.0155
605.2,0.0155
605.0,0.0153
604.8,0.0156
604.6,0.0150
604.4,0.0148
604.2,0.0151
604.0,0.0151
603.8,0.0154
603.6,0.0150
603.4,0.0149
603.2,0.0143
603.0,0.0148
602.8,0.0142
602.6,0.0148
602.4,0.0149
602.2,0.0146
602.0,0.0145
601.8,0.0144
601.6,0.0143
601.4,0.0144
601.2,0.0140
601.0,0.0143
600.8,0.0140
600.6,0.0142
600.4,0.0143
600.2,0.0143
600.0,0.0142
599.8,0.0144
599.6,0.0140
599.4,0.0137
599.2,0.0141
599.0,0.0139
598.8,0.0139
598.6,0.0143
598.4,0.0142
598.2,0.0136
598.0,0.0138
597.8,0.0136
597.6,0.0137
597.4,0.0137
597.2,0.0135
597.0,0.0140
596.8,0.0137
596.6,0.0136
596.4,0.0135
596.2,0.0136
596.0,0.0138
595.8,0.0137
595.6,0.0138
595.4,0.0140
595.2,0.0138
595.0,0.0135
594.8,0.0138
594.6,0.0132
594.4,0.0135
594.2,0.0134
594.0,0.0130
593.8,0.0129
593.6,0.0129
593.4,0.0129
593.2,0.0131
593.0,0.0129
592.8,0.0131
592.6,0.0130
592.4,0.0133
592.2,0.0132
592.0,0.0135
591.8,0.0129
591.6,0.0130
591.4,0.0129
591.2,0.0131
591.0,0.0128
590.8,0.0132
590.6,0.0128
590.4,0.0126
590.2,0.0131
590.0,0.0129
589.8,0.0128
589.6,0.0133
589.4,0.0131
589.2,0.0125
589.0,0.0122
588.8,0.0129
588.6,0.0129
588.4,0.0126
588.2,0.0128
588.0,0.0128
587.8,0.0128
587.6,0.0125
587.4,0.0125
587.2,0.0127
587.0,0.0123
586.8,0.0128
586.6,0.0127
586.4,0.0125
586.2,0.0125
586.0,0.0123
585.8,0.0118
585.6,0.0123
585.4,0.0120
585.2,0.0121
585.0,0.0124
584.8,0.0126
584.6,0.0124
584.4,0.0125
584.2,0.0126
584.0,0.0121
583.8,0.0122
583.6,0.0124
583.4,0.0124
583.2,0.0122
583.0,0.0119
582.8,0.0118
582.6,0.0122
582.4,0.0120
582.2,0.0119
582.0,0.0118
581.8,0.0120
581.6,0.0117
581.4,0.0119
581.2,0.0116
581.0,0.0118
580.8,0.0120
580.6,0.0117
580.4,0.0116
580.2,0.0116
580.0,0.0115