File: Figure1/UV-vis/Sample344.Sample.csv
Created as New Dataset,
nm,A
800.0,-0.0138
799.8,-0.0147
799.6,-0.0148
799.4,-0.0140
799.2,-0.0146
799.0,-0.0143
798.8,-0.0155
798.6,-0.0155
798.4,-0.0151
798.2,-0.0141
798.0,-0.0148
797.8,-0.0142
797.6,-0.0155
797.4,-0.0159
797.2,-0.0140
797.0,-0.0153
796.8,-0.0159
796.6,-0.0153
796.4,-0.0150
796.2,-0.0156
796.0,-0.0150
795.8,-0.0157
795.6,-0.0150
795.4,-0.0163
795.2,-0.0158
795.0,-0.0158
794.8,-0.0165
794.6,-0.0162
794.4,-0.0169
794.2,-0.0163
794.0,-0.0180
793.8,-0.0164
793.6,-0.0172
793.4,-0.0177
793.2,-0.0174
793.0,-0.0171
792.8,-0.0177
792.6,-0.0173
792.4,-0.0182
792.2,-0.0173
792.0,-0.0173
791.8,-0.0183
791.6,-0.0188
791.4,-0.0197
791.2,-0.0180
791.0,-0.0185
790.8,-0.0189
790.6,-0.0182
790.4,-0.0195
790.2,-0.0176
790.0,-0.0184
789.8,-0.0198
789.6,-0.0192
789.4,-0.0192
789.2,-0.0197
789.0,-0.0187
788.8,-0.0201
788.6,-0.0207
788.4,-0.0201
788.2,-0.0203
788.0,-0.0195
787.8,-0.0197
787.6,-0.0197
787.4,-0.0192
787.2,-0.0197
787.0,-0.0202
786.8,-0.0205
786.6,-0.0204
786.4,-0.0201
786.2,-0.0204
786.0,-0.0206
785.8,-0.0211
785.6,-0.0215
785.4,-0.0211
785.2,-0.0213
785.0,-0.0214
784.8,-0.0211
784.6,-0.0217
784.4,-0.0203
784.2,-0.0207
784.0,-0.0201
783.8,-0.0204
783.6,-0.0212
783.4,-0.0209
783.2,-0.0206
783.0,-0.0204
782.8,-0.0212
782.6,-0.0215
782.4,-0.0218
782.2,-0.0214
782.0,-0.0206
781.8,-0.0200
781.6,-0.0217
781.4,-0.0218
781.2,-0.0214
781.0,-0.0214
780.8,-0.0214
780.6,-0.0204
780.4,-0.0206
780.2,-0.0214
780.0,-0.0204
779.8,-0.0205
779.6,-0.0220
779.4,-0.0203
779.2,-0.0211
779.0,-0.0206
778.8,-0.0202
778.6,-0.0212
778.4,-0.0206
778.2,-0.0201
778.0,-0.0211
777.8,-0.0208
777.6,-0.0206
777.4,-0.0198
777.2,-0.0201
777.0,-0.0203
776.8,-0.0205
776.6,-0.0194
776.4,-0.0203
776.2,-0.0209
776.0,-0.0211
775.8,-0.0194
775.6,-0.0219
775.4,-0.0207
775.2,-0.0202
775.0,-0.0207
774.8,-0.0210
774.6,-0.0196
774.4,-0.0215
774.2,-0.0207
774.0,-0.0207
773.8,-0.0210
773.6,-0.0207
773.4,-0.0207
773.2,-0.0198
773.0,-0.0209
772.8,-0.0207
772.6,-0.0210
772.4,-0.0205
772.2,-0.0209
772.0,-0.0201
771.8,-0.0204
771.6,-0.0213
771.4,-0.0212
771.2,-0.0208
771.0,-0.0203
770.8,-0.0203
770.6,-0.0202
770.4,-0.0199
770.2,-0.0198
770.0,-0.0193
769.8,-0.0192
769.6,-0.0203
769.4,-0.0190
769.2,-0.0190
769.0,-0.0187
768.8,-0.0181
768.6,-0.0188
768.4,-0.0190
768.2,-0.0185
768.0,-0.0175
767.8,-0.0181
767.6,-0.0176
767.4,-0.0165
767.2,-0.0173
767.0,-0.0181
766.8,-0.0167
766.6,-0.0169
766.4,-0.0163
766.2,-0.0161
766.0,-0.0163
765.8,-0.0161
765.6,-0.0155
765.4,-0.0149
765.2,-0.0148
765.0,-0.0146
764.8,-0.0148
764.6,-0.0141
764.4,-0.0138
764.2,-0.0144
764.0,-0.0138
763.8,-0.0134
763.6,-0.0135
763.4,-0.0127
763.2,-0.0129
763.0,-0.0126
762.8,-0.0123
762.6,-0.0124
762.4,-0.0119
762.2,-0.0118
762.0,-0.0122
761.8,-0.0126
761.6,-0.0121
761.4,-0.0118
761.2,-0.0125
761.0,-0.0115
760.8,-0.0125
760.6,-0.0119
760.4,-0.0128
760.2,-0.0135
760.0,-0.0125
759.8,-0.0139
759.6,-0.0134
759.4,-0.0140
759.2,-0.0140
759.0,-0.0149
758.8,-0.0149
758.6,-0.0144
758.4,-0.0151
758.2,-0.0156
758.0,-0.0160
757.8,-0.0155
757.6,-0.0165
757.4,-0.0166
757.2,-0.0174
757.0,-0.0172
756.8,-0.0181
756.6,-0.0182
756.4,-0.0191
756.2,-0.0188
756.0,-0.0193
755.8,-0.0195
755.6,-0.0207
755.4,-0.0215
755.2,-0.0218
755.0,-0.0218
754.8,-0.0216
754.6,-0.0214
754.4,-0.0227
754.2,-0.0229
754.0,-0.0229
753.8,-0.0246
753.6,-0.0236
753.4,-0.0243
753.2,-0.0249
753.0,-0.0247
752.8,-0.0251
752.6,-0.0256
752.4,-0.0251
752.2,-0.0256
752.0,-0.0264
751.8,-0.0264
751.6,-0.0267
751.4,-0.0266
751.2,-0.0273
751.0,-0.0270
750.8,-0.0273
750.6,-0.0272
750.4,-0.0273
750.2,-0.0278
750.0,-0.0278
749.8,-0.0269
749.6,-0.0278
749.4,-0.0281
749.2,-0.0274
749.0,-0.0279
748.8,-0.0286
748.6,-0.0282
748.4,-0.0282
748.2,-0.0280
748.0,-0.0288
747.8,-0.0271
747.6,-0.0275
747.4,-0.0273
747.2,-0.0279
747.0,-0.0281
746.8,-0.0281
746.6,-0.0276
746.4,-0.0284
746.2,-0.0279
746.0,-0.0281
745.8,-0.0279
745.6,-0.0277
745.4,-0.0280
745.2,-0.0276
745.0,-0.0278
744.8,-0.0276
744.6,-0.0284
744.4,-0.0283
744.2,-0.0280
744.0,-0.0281
743.8,-0.0281
743.6,-0.0283
743.4,-0.0286
743.2,-0.0276
743.0,-0.0288
742.8,-0.0290
742.6,-0.0290
742.4,-0.0285
742.2,-0.0282
742.0,-0.0289
741.8,-0.0287
741.6,-0.0287
741.4,-0.0286
741.2,-0.0285
741.0,-0.0288
740.8,-0.0286
740.6,-0.0287
740.4,-0.0288
740.2,-0.0280
740.0,-0.0289
739.8,-0.0285
739.6,-0.0279
739.4,-0.0287
739.2,-0.0288
739.0,-0.0283
738.8,-0.0274
738.6,-0.0277
738.4,-0.0274
738.2,-0.0273
738.0,-0.0271
737.8,-0.0269
737.6,-0.0265
737.4,-0.0269
737.2,-0.0263
737.0,-0.0258
736.8,-0.0255
736.6,-0.0247
736.4,-0.0242
736.2,-0.0246
736.0,-0.0241
735.8,-0.0235
735.6,-0.0232
735.4,-0.0233
735.2,-0.0228
735.0,-0.0223
734.8,-0.0219
734.6,-0.0215
734.4,-0.0208
734.2,-0.0208
734.0,-0.0214
733.8,-0.0205
733.6,-0.0205
733.4,-0.0196
733.2,-0.0195
733.0,-0.0186
732.8,-0.0191
732.6,-0.0190
732.4,-0.0193
732.2,-0.0185
732.0,-0.0184
731.8,-0.0175
731.6,-0.0174
731.4,-0.0180
731.2,-0.0181
731.0,-0.0187
730.8,-0.0178
730.6,-0.0190
730.4,-0.0172
730.2,-0.0181
730.0,-0.0174
729.8,-0.0189
729.6,-0.0179
729.4,-0.0188
729.2,-0.0194
729.0,-0.0188
728.8,-0.0188
728.6,-0.0197
728.4,-0.0198
728.2,-0.0199
728.0,-0.0201
727.8,-0.0207
727.6,-0.0205
727.4,-0.0206
727.2,-0.0212
727.0,-0.0215
726.8,-0.0219
726.6,-0.0216
726.4,-0.0216
726.2,-0.0219
726.0,-0.0228
725.8,-0.0222
725.6,-0.0233
725.4,-0.0238
725.2,-0.0234
725.0,-0.0236
724.8,-0.0245
724.6,-0.0242
724.4,-0.0245
724.2,-0.0241
724.0,-0.0248
723.8,-0.0249
723.6,-0.0249
723.4,-0.0253
723.2,-0.0250
723.0,-0.0245
722.8,-0.0250
722.6,-0.0252
722.4,-0.0251
722.2,-0.0256
722.0,-0.0254
721.8,-0.0252
721.6,-0.0256
721.4,-0.0258
721.2,-0.0259
721.0,-0.0260
720.8,-0.0262
720.6,-0.0260
720.4,-0.0265
720.2,-0.0264
720.0,-0.0263
719.8,-0.0266
719.6,-0.0259
719.4,-0.0260
719.2,-0.0263
719.0,-0.0258
718.8,-0.0263
718.6,-0.0263
718.4,-0.0265
718.2,-0.0263
718.0,-0.0265
717.8,-0.0262
717.6,-0.0263
717.4,-0.0266
717.2,-0.0262
717.0,-0.0252
716.8,-0.0250
716.6,-0.0248
716.4,-0.0254
716.2,-0.0250
716.0,-0.0245
715.8,-0.0241
715.6,-0.0239
715.4,-0.0234
715.2,-0.0232
715.0,-0.0225
714.8,-0.0223
714.6,-0.0221
714.4,-0.0216
714.2,-0.0215
714.0,-0.0215
713.8,-0.0209
713.6,-0.0213
713.4,-0.0209
713.2,-0.0207
713.0,-0.0210
712.8,-0.0205
712.6,-0.0206
712.4,-0.0200
712.2,-0.0198
712.0,-0.0202
711.8,-0.0199
711.6,-0.0201
711.4,-0.0210
711.2,-0.0204
711.0,-0.0205
710.8,-0.0210
710.6,-0.0211
710.4,-0.0219
710.2,-0.0216
710.0,-0.0223
709.8,-0.0224
709.6,-0.0224
709.4,-0.0229
709.2,-0.0235
709.0,-0.0235
708.8,-0.0238
708.6,-0.0242
708.4,-0.0247
708.2,-0.0252
708.0,-0.0245
707.8,-0.0259
707.6,-0.0254
707.4,-0.0252
707.2,-0.0262
707.0,-0.0262
706.8,-0.0265
706.6,-0.0272
706.4,-0.0268
706.2,-0.0265
706.0,-0.0264
705.8,-0.0281
705.6,-0.0269
705.4,-0.0276
705.2,-0.0273
705.0,-0.0271
704.8,-0.0269
704.6,-0.0282
704.4,-0.0276
704.2,-0.0276
704.0,-0.0274
703.8,-0.0276
703.6,-0.0282
703.4,-0.0281
703.2,-0.0283
703.0,-0.0278
702.8,-0.0287
702.6,-0.0284
702.4,-0.0279
702.2,-0.0277
702.0,-0.0279
701.8,-0.0276
701.6,-0.0272
701.4,-0.0275
701.2,-0.0278
701.0,-0.0274
700.8,-0.0276
700.6,-0.0262
700.4,-0.0267
700.2,-0.0260
700.0,-0.0255
699.8,-0.0258
699.6,-0.0254
699.4,-0.0247
699.2,-0.0247
699.0,-0.0241
698.8,-0.0237
698.6,-0.0229
698.4,-0.0230
698.2,-0.0227
698.0,-0.0216
697.8,-0.0222
697.6,-0.0218
697.4,-0.0211
697.2,-0.0213
697.0,-0.0207
696.8,-0.0202
696.6,-0.0201
696.4,-0.0200
696.2,-0.0199
696.0,-0.0198
695.8,-0.0197
695.6,-0.0192
695.4,-0.0195
695.2,-0.0194
695.0,-0.0195
694.8,-0.0198
694.6,-0.0191
694.4,-0.0196
694.2,-0.0199
694.0,-0.0195
693.8,-0.0191
693.6,-0.0190
693.4,-0.0195
693.2,-0.0192
693.0,-0.0196
692.8,-0.0196
692.6,-0.0199
692.4,-0.0195
692.2,-0.0198
692.0,-0.0195
691.8,-0.0201
691.6,-0.0201
691.4,-0.0202
691.2,-0.0207
691.0,-0.0209
690.8,-0.0208
690.6,-0.0211
690.4,-0.0210
690.2,-0.0208
690.0,-0.0213
689.8,-0.0218
689.6,-0.0224
689.4,-0.0218
689.2,-0.0221
689.0,-0.0229
688.8,-0.0229
688.6,-0.0229
688.4,-0.0230
688.2,-0.0233
688.0,-0.0241
687.8,-0.0244
687.6,-0.0240
687.4,-0.0247
687.2,-0.0244
687.0,-0.0254
686.8,-0.0246
686.6,-0.0251
686.4,-0.0251
686.2,-0.0244
686.0,-0.0249
685.8,-0.0257
685.6,-0.0255
685.4,-0.0255
685.2,-0.0258
685.0,-0.0260
684.8,-0.0259
684.6,-0.0258
684.4,-0.0257
684.2,-0.0255
684.0,-0.0261
683.8,-0.0260
683.6,-0.0254
683.4,-0.0262
683.2,-0.0262
683.0,-0.0257
682.8,-0.0264
682.6,-0.0262
682.4,-0.0267
682.2,-0.0269
682.0,-0.0265
681.8,-0.0269
681.6,-0.0266
681.4,-0.0271
681.2,-0.0267
681.0,-0.0267
680.8,-0.0270
680.6,-0.0271
680.4,-0.0267
680.2,-0.0268
680.0,-0.0267
679.8,-0.0272
679.6,-0.0267
679.4,-0.0267
679.2,-0.0272
679.0,-0.0272
678.8,-0.0270
678.6,-0.0272
678.4,-0.0270
678.2,-0.0277
678.0,-0.0274
677.8,-0.0271
677.6,-0.0273
677.4,-0.0275
677.2,-0.0273
677.0,-0.0274
676.8,-0.0275
676.6,-0.0277
676.4,-0.0274
676.2,-0.0271
676.0,-0.0271
675.8,-0.0273
675.6,-0.0273
675.4,-0.0275
675.2,-0.0277
675.0,-0.0281
674.8,-0.0271
674.6,-0.0272
674.4,-0.0271
674.2,-0.0273
674.0,-0.0272
673.8,-0.0276
673.6,-0.0277
673.4,-0.0275
673.2,-0.0274
673.0,-0.0273
672.8,-0.0273
672.6,-0.0274
672.4,-0.0271
672.2,-0.0271
672.0,-0.0270
671.8,-0.0270
671.6,-0.0273
671.4,-0.0270
671.2,-0.0271
671.0,-0.0270
670.8,-0.0270
670.6,-0.0270
670.4,-0.0273
670.2,-0.0267
670.0,-0.0271
669.8,-0.0267
669.6,-0.0274
669.4,-0.0268
669.2,-0.0269
669.0,-0.0266
668.8,-0.0262
668.6,-0.0262
668.4,-0.0266
668.2,-0.0269
668.0,-0.0262
667.8,-0.0262
667.6,-0.0265
667.4,-0.0259
667.2,-0.0262
667.0,-0.0262
666.8,-0.0261
666.6,-0.0260
666.4,-0.0263
666.2,-0.0258
666.0,-0.0260
665.8,-0.0258
665.6,-0.0257
665.4,-0.0256
665.2,-0.0256
665.0,-0.0251
664.8,-0.0258
664.6,-0.0258
664.4,-0.0261
664.2,-0.0254
664.0,-0.0258
663.8,-0.0257
663.6,-0.0257
663.4,-0.0248
663.2,-0.0255
663.0,-0.0253
662.8,-0.0253
662.6,-0.0260
662.4,-0.0258
662.2,-0.0253
662.0,-0.0256
661.8,-0.0255
661.6,-0.0251
661.4,-0.0251
661.2,-0.0255
661.0,-0.0250
660.8,-0.0257
660.6,-0.0251
660.4,-0.0252
660.2,-0.0253
660.0,-0.0249
659.8,-0.0249
659.6,-0.0248
659.4,-0.0255
659.2,-0.0248
659.0,-0.0258
658.8,-0.0250
658.6,-0.0254
658.4,-0.0250
658.2,-0.0251
658.0,-0.0253
657.8,-0.0252
657.6,-0.0253
657.4,-0.0255
657.2,-0.0248
657.0,-0.0256
656.8,-0.0254
656.6,-0.0255
656.4,-0.0253
656.2,-0.0259
656.0,-0.0253
655.8,-0.0252
655.6,-0.0253
655.4,-0.0255
655.2,-0.0254
655.0,-0.0252
654.8,-0.0250
654.6,-0.0258
654.4,-0.0254
654.2,-0.0251
654.0,-0.0254
653.8,-0.0256
653.6,-0.0259
653.4,-0.0258
653.2,-0.0255
653.0,-0.0256
652.8,-0.0261
652.6,-0.0259
652.4,-0.0264
652.2,-0.0258
652.0,-0.0256
651.8,-0.0262
651.6,-0.0259
651.4,-0.0261
651.2,-0.0258
651.0,-0.0261
650.8,-0.0260
650.6,-0.0259
650.4,-0.0260
650.2,-0.0260
650.0,-0.0259
649.8,-0.0265
649.6,-0.0267
649.4,-0.0269
649.2,-0.0267
649.0,-0.0270
648.8,-0.0271
648.6,-0.0271
648.4,-0.0271
648.2,-0.0270
648.0,-0.0266
647.8,-0.0273
647.6,-0.0273
647.4,-0.0274
647.2,-0.0273
647.0,-0.0271
646.8,-0.0275
646.6,-0.0277
646.4,-0.0274
646.2,-0.0279
646.0,-0.0276
645.8,-0.0276
645.6,-0.0281
645.4,-0.0277
645.2,-0.0281
645.0,-0.0283
644.8,-0.0278
644.6,-0.0282
644.4,-0.0288
644.2,-0.0283
644.0,-0.0286
643.8,-0.0288
643.6,-0.0290
643.4,-0.0290
643.2,-0.0288
643.0,-0.0291
642.8,-0.0292
642.6,-0.0293
642.4,-0.0289
642.2,-0.0294
642.0,-0.0295
641.8,-0.0295
641.6,-0.0295
641.4,-0.0298
641.2,-0.0296
641.0,-0.0301
640.8,-0.0293
640.6,-0.0298
640.4,-0.0297
640.2,-0.0302
640.0,-0.0301
639.8,-0.0303
639.6,-0.0305
639.4,-0.0303
639.2,-0.0309
639.0,-0.0308
638.8,-0.0308
638.6,-0.0304
638.4,-0.0311
638.2,-0.0316
638.0,-0.0313
637.8,-0.0312
637.6,-0.0318
637.4,-0.0313
637.2,-0.0312
637.0,-0.0319
636.8,-0.0313
636.6,-0.0312
636.4,-0.0325
636.2,-0.0320
636.0,-0.0324
635.8,-0.0321
635.6,-0.0327
635.4,-0.0325
635.2,-0.0325
635.0,-0.0322
634.8,-0.0327
634.6,-0.0329
634.4,-0.0335
634.2,-0.0331
634.0,-0.0333
633.8,-0.0331
633.6,-0.0334
633.4,-0.0337
633.2,-0.0340
633.0,-0.0336
632.8,-0.0338
632.6,-0.0339
632.4,-0.0340
632.2,-0.0341
632.0,-0.0339
631.8,-0.0341
631.6,-0.0342
631.4,-0.0341
631.2,-0.0344
631.0,-0.0345
630.8,-0.0346
630.6,-0.0345
630.4,-0.0348
630.2,-0.0349
630.0,-0.0349
629.8,-0.0352
629.6,-0.0353
629.4,-0.0348
629.2,-0.0348
629.0,-0.0357
628.8,-0.0354
628.6,-0.0353
628.4,-0.0357
628.2,-0.0355
628.0,-0.0354
627.8,-0.0356
627.6,-0.0363
627.4,-0.0362
627.2,-0.0358
627.0,-0.0364
626.8,-0.0364
626.6,-0.0370
626.4,-0.0367
626.2,-0.0367
626.0,-0.0370
625.8,-0.0367
625.6,-0.0370
625.4,-0.0371
625.2,-0.0370
625.0,-0.0374
624.8,-0.0369
624.6,-0.0372
624.4,-0.0372
624.2,-0.0373
624.0,-0.0374
623.8,-0.0374
623.6,-0.0377
623.4,-0.0376
623.2,-0.0380
623.0,-0.0380
622.8,-0.0378
622.6,-0.0385
622.4,-0.0384
622.2,-0.0385
622.0,-0.0385
621.8,-0.0379
621.6,-0.0384
621.4,-0.0386
621.2,-0.0381
621.0,-0.0383
620.8,-0.0383
620.6,-0.0387
620.4,-0.0386
620.2,-0.0388
620.0,-0.0389
619.8,-0.0388
619.6,-0.0391
619.4,-0.0392
619.2,-0.0391
619.0,-0.0392
618.8,-0.0396
618.6,-0.0396
618.4,-0.0397
618.2,-0.0399
618.0,-0.0397
617.8,-0.0399
617.6,-0.0396
617.4,-0.0396
617.2,-0.0394
617.0,-0.0395
616.8,-0.0401
616.6,-0.0401
616.4,-0.0399
616.2,-0.0393
616.0,-0.0399
615.8,-0.0400
615.6,-0.0398
615.4,-0.0397
615.2,-0.0400
615.0,-0.0396
614.8,-0.0398
614.6,-0.0403
614.4,-0.0396
614.2,-0.0401
614.0,-0.0399
613.8,-0.0404
613.6,-0.0399
613.4,-0.0400
613.2,-0.0400
613.0,-0.0406
612.8,-0.0407
612.6,-0.0404
612.4,-0.0405
612.2,-0.0403
612.0,-0.0404
611.8,-0.0405
611.6,-0.0407
611.4,-0.0406
611.2,-0.0409
611.0,-0.0409
610.8,-0.0408
610.6,-0.0407
610.4,-0.0413
610.2,-0.0403
610.0,-0.0404
609.8,-0.0411
609.6,-0.0409
609.4,-0.0410
609.2,-0.0405
609.0,-0.0408
608.8,-0.0409
608.6,-0.0409
608.4,-0.0409
608.2,-0.0406
608.0,-0.0407
607.8,-0.0412
607.6,-0.0409
607.4,-0.0413
607.2,-0.0412
607.0,-0.0409
606.8,-0.0409
606.6,-0.0411
606.4,-0.0410
606.2,-0.0407
606.0,-0.0408
605.8,-0.0408
605.6,-0.0411
605.4,-0.0406
605.2,-0.0410
605.0,-0.0404
604.8,-0.0408
604.6,-0.0410
604.4,-0.0410
604.2,-0.0413
604.0,-0.0409
603.8,-0.0406
603.6,-0.0409
603.4,-0.0412
603.2,-0.0412
603.0,-0.0408
602.8,-0.0411
602.6,-0.0407
602.4,-0.0407
602.2,-0.0410
602.0,-0.0406
601.8,-0.0406
601.6,-0.0407
601.4,-0.0407
601.2,-0.0412
601.0,-0.0408
600.8,-0.0409
600.6,-0.0407
600.4,-0.0409
600.2,-0.0407
600.0,-0.0408
599.8,-0.0406
599.6,-0.0408
599.4,-0.0409
599.2,-0.0407
599.0,-0.0410
598.8,-0.0408
598.6,-0.0407
598.4,-0.0402
598.2,-0.0407
598.0,-0.0405
597.8,-0.0409
597.6,-0.0406
597.4,-0.0407
597.2,-0.0407
597.0,-0.0404
596.8,-0.0408
596.6,-0.0407
596.4,-0.0406
596.2,-0.0406
596.0,-0.0406
595.8,-0.0405
595.6,-0.0410
595.4,-0.0408
595.2,-0.0407
595.0,-0.0408
594.8,-0.0404
594.6,-0.0411
594.4,-0.0408
594.2,-0.0407
594.0,-0.0410
593.8,-0.0408
593.6,-0.0407
593.4,-0.0409
593.2,-0.0412
593.0,-0.0411
592.8,-0.0409
592.6,-0.0409
592.4,-0.0407
592.2,-0.0412
592.0,-0.0408
591.8,-0.0410
591.6,-0.0411
591.4,-0.0410
591.2,-0.0413
591.0,-0.0414
590.8,-0.0415
590.6,-0.0409
590.4,-0.0412
590.2,-0.0412
590.0,-0.0410
589.8,-0.0413
589.6,-0.0414
589.4,-0.0413
589.2,-0.0416
589.0,-0.0417
588.8,-0.0412
588.6,-0.0416
588.4,-0.0415
588.2,-0.0418
588.0,-0.0413
587.8,-0.0419
587.6,-0.0419
587.4,-0.0424
587.2,-0.0419
587.0,-0.0421
586.8,-0.0417
586.6,-0.0421
586.4,-0.0419
586.2,-0.0422
586.0,-0.0423
585.8,-0.0425
585.6,-0.0423
585.4,-0.0425
585.2,-0.0426
585.0,-0.0422
584.8,-0.0423
584.6,-0.0425
584.4,-0.0421
584.2,-0.0428
584.0,-0.0428
583.8,-0.0428
583.6,-0.0426
583.4,-0.0427
583.2,-0.0427
583.0,-0.0427
582.8,-0.0432
582.6,-0.0430
582.4,-0.0431
582.2,-0.0432
582.0,-0.0431
581.8,-0.0431
581.6,-0.0433
581.4,-0.0436
581.2,-0.0436
581.0,-0.0433
580.8,-0.0434
580.6,-0.0434
580.4,-0.0438
580.2,-0.0436
580.0,-0.0435