File: Figure1/UV-vis/Sample349.Sample.csv
Created as New Dataset,
nm,A
800.0,0.0080
799.8,0.0079
799.6,0.0078
799.4,0.0078
799.2,0.0078
799.0,0.0080
798.8,0.0072
798.6,0.0076
798.4,0.0085
798.2,0.0080
798.0,0.0078
797.8,0.0096
797.6,0.0079
797.4,0.0081
797.2,0.0091
797.0,0.0080
796.8,0.0077
796.6,0.0089
796.4,0.0086
796.2,0.0072
796.0,0.0088
795.8,0.0075
795.6,0.0078
795.4,0.0069
795.2,0.0082
795.0,0.0077
794.8,0.0078
794.6,0.0075
794.4,0.0077
794.2,0.0078
794.0,0.0079
793.8,0.0076
793.6,0.0083
793.4,0.0063
793.2,0.0077
793.0,0.0081
792.8,0.0076
792.6,0.0085
792.4,0.0081
792.2,0.0082
792.0,0.0083
791.8,0.0077
791.6,0.0076
791.4,0.0069
791.2,0.0082
791.0,0.0080
790.8,0.0076
790.6,0.0083
790.4,0.0078
790.2,0.0087
790.0,0.0084
789.8,0.0073
789.6,0.0076
789.4,0.0084
789.2,0.0079
789.0,0.0090
788.8,0.0077
788.6,0.0074
788.4,0.0081
788.2,0.0076
788.0,0.0082
787.8,0.0075
787.6,0.0080
787.4,0.0084
787.2,0.0081
787.0,0.0085
786.8,0.0079
786.6,0.0069
786.4,0.0081
786.2,0.0081
786.0,0.0077
785.8,0.0078
785.6,0.0071
785.4,0.0079
785.2,0.0074
785.0,0.0077
784.8,0.0078
784.6,0.0080
784.4,0.0087
784.2,0.0080
784.0,0.0080
783.8,0.0090
783.6,0.0078
783.4,0.0085
783.2,0.0078
783.0,0.0079
782.8,0.0073
782.6,0.0077
782.4,0.0076
782.2,0.0083
782.0,0.0086
781.8,0.0087
781.6,0.0076
781.4,0.0075
781.2,0.0078
781.0,0.0074
780.8,0.0078
780.6,0.0083
780.4,0.0075
780.2,0.0072
780.0,0.0085
779.8,0.0082
779.6,0.0084
779.4,0.0082
779.2,0.0089
779.0,0.0084
778.8,0.0085
778.6,0.0072
778.4,0.0082
778.2,0.0082
778.0,0.0081
777.8,0.0084
777.6,0.0079
777.4,0.0084
777.2,0.0083
777.0,0.0084
776.8,0.0082
776.6,0.0086
776.4,0.0081
776.2,0.0075
776.0,0.0083
775.8,0.0089
775.6,0.0070
775.4,0.0076
775.2,0.0091
775.0,0.0088
774.8,0.0079
774.6,0.0091
774.4,0.0080
774.2,0.0083
774.0,0.0086
773.8,0.0084
773.6,0.0076
773.4,0.0080
773.2,0.0082
773.0,0.0083
772.8,0.0083
772.6,0.0077
772.4,0.0077
772.2,0.0079
772.0,0.0086
771.8,0.0088
771.6,0.0077
771.4,0.0081
771.2,0.0077
771.0,0.0083
770.8,0.0079
770.6,0.0085
770.4,0.0076
770.2,0.0078
770.0,0.0091
769.8,0.0083
769.6,0.0073
769.4,0.0087
769.2,0.0091
769.0,0.0084
768.8,0.0086
768.6,0.0083
768.4,0.0080
768.2,0.0078
768.0,0.0086
767.8,0.0074
767.6,0.0084
767.4,0.0088
767.2,0.0084
767.0,0.0075
766.8,0.0088
766.6,0.0077
766.4,0.0080
766.2,0.0079
766.0,0.0078
765.8,0.0081
765.6,0.0079
765.4,0.0085
765.2,0.0088
765.0,0.0090
764.8,0.0087
764.6,0.0085
764.4,0.0087
764.2,0.0076
764.0,0.0084
763.8,0.0088
763.6,0.0077
763.4,0.0083
763.2,0.0088
763.0,0.0088
762.8,0.0089
762.6,0.0086
762.4,0.0087
762.2,0.0092
762.0,0.0093
761.8,0.0083
761.6,0.0087
761.4,0.0085
761.2,0.0082
761.0,0.0086
760.8,0.0086
760.6,0.0087
760.4,0.0085
760.2,0.0082
760.0,0.0084
759.8,0.0090
759.6,0.0089
759.4,0.0079
759.2,0.0089
759.0,0.0082
758.8,0.0081
758.6,0.0090
758.4,0.0087
758.2,0.0092
758.0,0.0089
757.8,0.0094
757.6,0.0080
757.4,0.0092
757.2,0.0094
757.0,0.0090
756.8,0.0088
756.6,0.0096
756.4,0.0086
756.2,0.0083
756.0,0.0081
755.8,0.0089
755.6,0.0090
755.4,0.0086
755.2,0.0083
755.0,0.0078
754.8,0.0095
754.6,0.0101
754.4,0.0094
754.2,0.0086
754.0,0.0089
753.8,0.0089
753.6,0.0086
753.4,0.0088
753.2,0.0089
753.0,0.0087
752.8,0.0093
752.6,0.0084
752.4,0.0092
752.2,0.0090
752.0,0.0087
751.8,0.0093
751.6,0.0090
751.4,0.0086
751.2,0.0092
751.0,0.0092
750.8,0.0086
750.6,0.0087
750.4,0.0089
750.2,0.0085
750.0,0.0097
749.8,0.0091
749.6,0.0087
749.4,0.0096
749.2,0.0097
749.0,0.0090
748.8,0.0085
748.6,0.0086
748.4,0.0086
748.2,0.0088
748.0,0.0080
747.8,0.0094
747.6,0.0096
747.4,0.0093
747.2,0.0087
747.0,0.0093
746.8,0.0087
746.6,0.0090
746.4,0.0086
746.2,0.0092
746.0,0.0086
745.8,0.0089
745.6,0.0096
745.4,0.0089
745.2,0.0094
745.0,0.0090
744.8,0.0085
744.6,0.0094
744.4,0.0091
744.2,0.0088
744.0,0.0092
743.8,0.0090
743.6,0.0094
743.4,0.0090
743.2,0.0099
743.0,0.0090
742.8,0.0081
742.6,0.0090
742.4,0.0092
742.2,0.0096
742.0,0.0089
741.8,0.0088
741.6,0.0094
741.4,0.0092
741.2,0.0096
741.0,0.0094
740.8,0.0088
740.6,0.0094
740.4,0.0092
740.2,0.0098
740.0,0.0093
739.8,0.0092
739.6,0.0097
739.4,0.0090
739.2,0.0090
739.0,0.0092
738.8,0.0099
738.6,0.0094
738.4,0.0094
738.2,0.0097
738.0,0.0096
737.8,0.0090
737.6,0.0089
737.4,0.0090
737.2,0.0101
737.0,0.0089
736.8,0.0100
736.6,0.0092
736.4,0.0097
736.2,0.0091
736.0,0.0096
735.8,0.0092
735.6,0.0098
735.4,0.0087
735.2,0.0098
735.0,0.0089
734.8,0.0096
734.6,0.0094
734.4,0.0101
734.2,0.0098
734.0,0.0087
733.8,0.0101
733.6,0.0094
733.4,0.0100
733.2,0.0094
733.0,0.0088
732.8,0.0089
732.6,0.0091
732.4,0.0095
732.2,0.0098
732.0,0.0099
731.8,0.0103
731.6,0.0102
731.4,0.0098
731.2,0.0102
731.0,0.0086
730.8,0.0102
730.6,0.0089
730.4,0.0106
730.2,0.0096
730.0,0.0096
729.8,0.0093
729.6,0.0097
729.4,0.0091
729.2,0.0095
729.0,0.0093
728.8,0.0102
728.6,0.0097
728.4,0.0099
728.2,0.0091
728.0,0.0092
727.8,0.0091
727.6,0.0100
727.4,0.0096
727.2,0.0099
727.0,0.0098
726.8,0.0098
726.6,0.0106
726.4,0.0095
726.2,0.0094
726.0,0.0095
725.8,0.0097
725.6,0.0101
725.4,0.0097
725.2,0.0101
725.0,0.0102
724.8,0.0096
724.6,0.0098
724.4,0.0096
724.2,0.0102
724.0,0.0099
723.8,0.0096
723.6,0.0096
723.4,0.0095
723.2,0.0103
723.0,0.0107
722.8,0.0102
722.6,0.0099
722.4,0.0101
722.2,0.0095
722.0,0.0105
721.8,0.0105
721.6,0.0103
721.4,0.0099
721.2,0.0101
721.0,0.0104
720.8,0.0102
720.6,0.0104
720.4,0.0098
720.2,0.0102
720.0,0.0100
719.8,0.0099
719.6,0.0103
719.4,0.0103
719.2,0.0101
719.0,0.0103
718.8,0.0102
718.6,0.0102
718.4,0.0105
718.2,0.0101
718.0,0.0103
717.8,0.0107
717.6,0.0102
717.4,0.0101
717.2,0.0104
717.0,0.0103
716.8,0.0103
716.6,0.0099
716.4,0.0101
716.2,0.0103
716.0,0.0104
715.8,0.0106
715.6,0.0100
715.4,0.0103
715.2,0.0097
715.0,0.0105
714.8,0.0108
714.6,0.0106
714.4,0.0099
714.2,0.0101
714.0,0.0104
713.8,0.0102
713.6,0.0103
713.4,0.0105
713.2,0.0099
713.0,0.0105
712.8,0.0104
712.6,0.0105
712.4,0.0110
712.2,0.0107
712.0,0.0109
711.8,0.0105
711.6,0.0105
711.4,0.0108
711.2,0.0108
711.0,0.0108
710.8,0.0110
710.6,0.0110
710.4,0.0109
710.2,0.0109
710.0,0.0111
709.8,0.0105
709.6,0.0108
709.4,0.0104
709.2,0.0108
709.0,0.0115
708.8,0.0103
708.6,0.0103
708.4,0.0103
708.2,0.0108
708.0,0.0107
707.8,0.0103
707.6,0.0113
707.4,0.0111
707.2,0.0107
707.0,0.0107
706.8,0.0103
706.6,0.0111
706.4,0.0107
706.2,0.0109
706.0,0.0112
705.8,0.0100
705.6,0.0107
705.4,0.0105
705.2,0.0113
705.0,0.0114
704.8,0.0116
704.6,0.0111
704.4,0.0113
704.2,0.0109
704.0,0.0110
703.8,0.0112
703.6,0.0105
703.4,0.0108
703.2,0.0110
703.0,0.0114
702.8,0.0108
702.6,0.0107
702.4,0.0112
702.2,0.0109
702.0,0.0108
701.8,0.0109
701.6,0.0119
701.4,0.0112
701.2,0.0116
701.0,0.0113
700.8,0.0113
700.6,0.0114
700.4,0.0110
700.2,0.0112
700.0,0.0114
699.8,0.0117
699.6,0.0117
699.4,0.0119
699.2,0.0114
699.0,0.0114
698.8,0.0122
698.6,0.0119
698.4,0.0112
698.2,0.0116
698.0,0.0120
697.8,0.0113
697.6,0.0115
697.4,0.0119
697.2,0.0116
697.0,0.0118
696.8,0.0122
696.6,0.0117
696.4,0.0117
696.2,0.0115
696.0,0.0118
695.8,0.0114
695.6,0.0123
695.4,0.0120
695.2,0.0116
695.0,0.0115
694.8,0.0114
694.6,0.0120
694.4,0.0118
694.2,0.0116
694.0,0.0118
693.8,0.0122
693.6,0.0121
693.4,0.0125
693.2,0.0122
693.0,0.0118
692.8,0.0124
692.6,0.0121
692.4,0.0127
692.2,0.0125
692.0,0.0129
691.8,0.0121
691.6,0.0126
691.4,0.0125
691.2,0.0126
691.0,0.0126
690.8,0.0122
690.6,0.0125
690.4,0.0127
690.2,0.0128
690.0,0.0122
689.8,0.0127
689.6,0.0124
689.4,0.0128
689.2,0.0129
689.0,0.0125
688.8,0.0126
688.6,0.0129
688.4,0.0129
688.2,0.0133
688.0,0.0127
687.8,0.0124
687.6,0.0132
687.4,0.0126
687.2,0.0128
687.0,0.0119
686.8,0.0129
686.6,0.0127
686.4,0.0134
686.2,0.0133
686.0,0.0133
685.8,0.0125
685.6,0.0131
685.4,0.0130
685.2,0.0129
685.0,0.0134
684.8,0.0134
684.6,0.0130
684.4,0.0138
684.2,0.0137
684.0,0.0137
683.8,0.0132
683.6,0.0135
683.4,0.0130
683.2,0.0132
683.0,0.0139
682.8,0.0133
682.6,0.0133
682.4,0.0131
682.2,0.0132
682.0,0.0135
681.8,0.0132
681.6,0.0138
681.4,0.0131
681.2,0.0136
681.0,0.0135
680.8,0.0133
680.6,0.0131
680.4,0.0136
680.2,0.0143
680.0,0.0136
679.8,0.0139
679.6,0.0139
679.4,0.0139
679.2,0.0138
679.0,0.0139
678.8,0.0139
678.6,0.0141
678.4,0.0138
678.2,0.0137
678.0,0.0140
677.8,0.0145
677.6,0.0144
677.4,0.0140
677.2,0.0146
677.0,0.0141
676.8,0.0145
676.6,0.0141
676.4,0.0150
676.2,0.0148
676.0,0.0147
675.8,0.0147
675.6,0.0152
675.4,0.0149
675.2,0.0146
675.0,0.0141
674.8,0.0148
674.6,0.0150
674.4,0.0148
674.2,0.0150
674.0,0.0149
673.8,0.0148
673.6,0.0149
673.4,0.0149
673.2,0.0146
673.0,0.0148
672.8,0.0151
672.6,0.0154
672.4,0.0154
672.2,0.0151
672.0,0.0147
671.8,0.0153
671.6,0.0151
671.4,0.0154
671.2,0.0158
671.0,0.0154
670.8,0.0157
670.6,0.0156
670.4,0.0150
670.2,0.0158
670.0,0.0153
669.8,0.0156
669.6,0.0151
669.4,0.0157
669.2,0.0153
669.0,0.0157
668.8,0.0155
668.6,0.0157
668.4,0.0156
668.2,0.0151
668.0,0.0157
667.8,0.0158
667.6,0.0156
667.4,0.0158
667.2,0.0161
667.0,0.0157
666.8,0.0155
666.6,0.0157
666.4,0.0155
666.2,0.0159
666.0,0.0158
665.8,0.0159
665.6,0.0156
665.4,0.0162
665.2,0.0156
665.0,0.0158
664.8,0.0154
664.6,0.0156
664.4,0.0156
664.2,0.0159
664.0,0.0155
663.8,0.0155
663.6,0.0158
663.4,0.0155
663.2,0.0155
663.0,0.0157
662.8,0.0152
662.6,0.0155
662.4,0.0150
662.2,0.0157
662.0,0.0156
661.8,0.0154
661.6,0.0157
661.4,0.0152
661.2,0.0154
661.0,0.0159
660.8,0.0150
660.6,0.0152
660.4,0.0153
660.2,0.0153
660.0,0.0151
659.8,0.0156
659.6,0.0153
659.4,0.0149
659.2,0.0152
659.0,0.0148
658.8,0.0150
658.6,0.0145
658.4,0.0156
658.2,0.0150
658.0,0.0153
657.8,0.0150
657.6,0.0148
657.4,0.0147
657.2,0.0152
657.0,0.0148
656.8,0.0150
656.6,0.0153
656.4,0.0150
656.2,0.0148
656.0,0.0148
655.8,0.0149
655.6,0.0150
655.4,0.0144
655.2,0.0150
655.0,0.0147
654.8,0.0150
654.6,0.0143
654.4,0.0148
654.2,0.0149
654.0,0.0146
653.8,0.0145
653.6,0.0143
653.4,0.0145
653.2,0.0148
653.0,0.0145
652.8,0.0137
652.6,0.0142
652.4,0.0138
652.2,0.0139
652.0,0.0142
651.8,0.0143
651.6,0.0143
651.4,0.0144
651.2,0.0143
651.0,0.0148
650.8,0.0146
650.6,0.0146
650.4,0.0145
650.2,0.0144
650.0,0.0144
649.8,0.0143
649.6,0.0139
649.4,0.0141
649.2,0.0144
649.0,0.0137
648.8,0.0138
648.6,0.0142
648.4,0.0140
648.2,0.0142
648.0,0.0145
647.8,0.0144
647.6,0.0142
647.4,0.0140
647.2,0.0142
647.0,0.0142
646.8,0.0141
646.6,0.0138
646.4,0.0143
646.2,0.0139
646.0,0.0141
645.8,0.0141
645.6,0.0142
645.4,0.0145
645.2,0.0145
645.0,0.0145
644.8,0.0147
644.6,0.0146
644.4,0.0144
644.2,0.0143
644.0,0.0143
643.8,0.0143
643.6,0.0141
643.4,0.0143
643.2,0.0143
643.0,0.0141
642.8,0.0141
642.6,0.0140
642.4,0.0143
642.2,0.0144
642.0,0.0143
641.8,0.0147
641.6,0.0143
641.4,0.0140
641.2,0.0145
641.0,0.0146
640.8,0.0147
640.6,0.0144
640.4,0.0143
640.2,0.0147
640.0,0.0146
639.8,0.0144
639.6,0.0144
639.4,0.0150
639.2,0.0146
639.0,0.0143
638.8,0.0145
638.6,0.0148
638.4,0.0147
638.2,0.0146
638.0,0.0147
637.8,0.0149
637.6,0.0145
637.4,0.0146
637.2,0.0147
637.0,0.0150
636.8,0.0151
636.6,0.0152
636.4,0.0146
636.2,0.0153
636.0,0.0146
635.8,0.0146
635.6,0.0146
635.4,0.0146
635.2,0.0147
635.0,0.0151
634.8,0.0145
634.6,0.0148
634.4,0.0144
634.2,0.0150
634.0,0.0147
633.8,0.0150
633.6,0.0149
633.4,0.0151
633.2,0.0148
633.0,0.0152
632.8,0.0153
632.6,0.0150
632.4,0.0153
632.2,0.0146
632.0,0.0152
631.8,0.0151
631.6,0.0154
631.4,0.0155
631.2,0.0153
631.0,0.0153
630.8,0.0152
630.6,0.0158
630.4,0.0153
630.2,0.0157
630.0,0.0154
629.8,0.0156
629.6,0.0153
629.4,0.0156
629.2,0.0159
629.0,0.0154
628.8,0.0157
628.6,0.0155
628.4,0.0157
628.2,0.0154
628.0,0.0162
627.8,0.0160
627.6,0.0157
627.4,0.0155
627.2,0.0162
627.0,0.0156
626.8,0.0156
626.6,0.0155
626.4,0.0158
626.2,0.0157
626.0,0.0158
625.8,0.0158
625.6,0.0158
625.4,0.0159
625.2,0.0158
625.0,0.0153
624.8,0.0161
624.6,0.0161
624.4,0.0160
624.2,0.0162
624.0,0.0162
623.8,0.0161
623.6,0.0160
623.4,0.0162
623.2,0.0162
623.0,0.0162
622.8,0.0161
622.6,0.0155
622.4,0.0161
622.2,0.0158
622.0,0.0165
621.8,0.0163
621.6,0.0160
621.4,0.0161
621.2,0.0164
621.0,0.0164
620.8,0.0166
620.6,0.0163
620.4,0.0160
620.2,0.0163
620.0,0.0165
619.8,0.0162
619.6,0.0162
619.4,0.0165
619.2,0.0164
619.0,0.0165
618.8,0.0159
618.6,0.0159
618.4,0.0161
618.2,0.0157
618.0,0.0161
617.8,0.0162
617.6,0.0163
617.4,0.0161
617.2,0.0160
617.0,0.0165
616.8,0.0162
616.6,0.0159
616.4,0.0164
616.2,0.0163
616.0,0.0162
615.8,0.0160
615.6,0.0164
615.4,0.0165
615.2,0.0160
615.0,0.0160
614.8,0.0160
614.6,0.0160
614.4,0.0165
614.2,0.0161
614.0,0.0164
613.8,0.0160
613.6,0.0161
613.4,0.0159
613.2,0.0162
613.0,0.0156
612.8,0.0158
612.6,0.0161
612.4,0.0155
612.2,0.0163
612.0,0.0158
611.8,0.0155
611.6,0.0153
611.4,0.0159
611.2,0.0155
611.0,0.0157
610.8,0.0155
610.6,0.0157
610.4,0.0148
610.2,0.0160
610.0,0.0159
609.8,0.0156
609.6,0.0154
609.4,0.0153
609.2,0.0158
609.0,0.0155
608.8,0.0153
608.6,0.0151
608.4,0.0150
608.2,0.0153
608.0,0.0154
607.8,0.0149
607.6,0.0151
607.4,0.0149
607.2,0.0148
607.0,0.0150
606.8,0.0147
606.6,0.0148
606.4,0.0147
606.2,0.0150
606.0,0.0151
605.8,0.0149
605.6,0.0148
605.4,0.0150
605.2,0.0147
605.0,0.0151
604.8,0.0147
604.6,0.0149
604.4,0.0145
604.2,0.0143
604.0,0.0144
603.8,0.0145
603.6,0.0147
603.4,0.0148
603.2,0.0143
603.0,0.0146
602.8,0.0142
602.6,0.0144
602.4,0.0140
602.2,0.0142
602.0,0.0144
601.8,0.0144
601.6,0.0140
601.4,0.0141
601.2,0.0136
601.0,0.0140
600.8,0.0139
600.6,0.0142
600.4,0.0138
600.2,0.0138
600.0,0.0139
599.8,0.0138
599.6,0.0137
599.4,0.0135
599.2,0.0137
599.0,0.0135
598.8,0.0136
598.6,0.0137
598.4,0.0138
598.2,0.0136
598.0,0.0133
597.8,0.0132
597.6,0.0134
597.4,0.0134
597.2,0.0134
597.0,0.0134
596.8,0.0130
596.6,0.0131
596.4,0.0131
596.2,0.0134
596.0,0.0133
595.8,0.0136
595.6,0.0133
595.4,0.0133
595.2,0.0132
595.0,0.0133
594.8,0.0134
594.6,0.0129
594.4,0.0131
594.2,0.0131
594.0,0.0126
593.8,0.0128
593.6,0.0126
593.4,0.0128
593.2,0.0127
593.0,0.0128
592.8,0.0127
592.6,0.0126
592.4,0.0123
592.2,0.0130
592.0,0.0129
591.8,0.0124
591.6,0.0127
591.4,0.0127
591.2,0.0124
591.0,0.0123
590.8,0.0129
590.6,0.0128
590.4,0.0130
590.2,0.0127
590.0,0.0126
589.8,0.0126
589.6,0.0125
589.4,0.0126
589.2,0.0125
589.0,0.0123
588.8,0.0123
588.6,0.0124
588.4,0.0122
588.2,0.0120
588.0,0.0124
587.8,0.0123
587.6,0.0124
587.4,0.0123
587.2,0.0125
587.0,0.0121
586.8,0.0122
586.6,0.0120
586.4,0.0123
586.2,0.0120
586.0,0.0120
585.8,0.0121
585.6,0.0121
585.4,0.0116
585.2,0.0121
585.0,0.0119
584.8,0.0122
584.6,0.0120
584.4,0.0123
584.2,0.0120
584.0,0.0118
583.8,0.0119
583.6,0.0120
583.4,0.0117
583.2,0.0116
583.0,0.0114
582.8,0.0115
582.6,0.0120
582.4,0.0115
582.2,0.0114
582.0,0.0117
581.8,0.0115
581.6,0.0114
581.4,0.0117
581.2,0.0114
581.0,0.0117
580.8,0.0117
580.6,0.0114
580.4,0.0115
580.2,0.0114
580.0,0.0114