File: Figure1/UV-vis/Sample341.Sample.csv
Created as New Dataset,
nm,A
800.0,0.0034
799.8,0.0041
799.6,0.0036
799.4,0.0036
799.2,0.0031
799.0,0.0033
798.8,0.0030
798.6,0.0036
798.4,0.0046
798.2,0.0040
798.0,0.0032
797.8,0.0041
797.6,0.0026
797.4,0.0027
797.2,0.0049
797.0,0.0042
796.8,0.0033
796.6,0.0041
796.4,0.0046
796.2,0.0032
796.0,0.0043
795.8,0.0046
795.6,0.0037
795.4,0.0027
795.2,0.0044
795.0,0.0036
794.8,0.0035
794.6,0.0043
794.4,0.0040
794.2,0.0040
794.0,0.0028
793.8,0.0048
793.6,0.0038
793.4,0.0031
793.2,0.0037
793.0,0.0033
792.8,0.0033
792.6,0.0035
792.4,0.0025
792.2,0.0038
792.0,0.0043
791.8,0.0039
791.6,0.0033
791.4,0.0027
791.2,0.0044
791.0,0.0039
790.8,0.0030
790.6,0.0035
790.4,0.0042
790.2,0.0048
790.0,0.0041
789.8,0.0035
789.6,0.0032
789.4,0.0043
789.2,0.0040
789.0,0.0049
788.8,0.0039
788.6,0.0035
788.4,0.0033
788.2,0.0029
788.0,0.0036
787.8,0.0037
787.6,0.0043
787.4,0.0039
787.2,0.0032
787.0,0.0043
786.8,0.0040
786.6,0.0033
786.4,0.0040
786.2,0.0036
786.0,0.0032
785.8,0.0033
785.6,0.0027
785.4,0.0040
785.2,0.0036
785.0,0.0034
784.8,0.0043
784.6,0.0036
784.4,0.0045
784.2,0.0040
784.0,0.0043
783.8,0.0040
783.6,0.0035
783.4,0.0045
783.2,0.0041
783.0,0.0047
782.8,0.0037
782.6,0.0048
782.4,0.0043
782.2,0.0034
782.0,0.0040
781.8,0.0043
781.6,0.0032
781.4,0.0030
781.2,0.0037
781.0,0.0031
780.8,0.0033
780.6,0.0047
780.4,0.0042
780.2,0.0036
780.0,0.0040
779.8,0.0044
779.6,0.0028
779.4,0.0036
779.2,0.0046
779.0,0.0040
778.8,0.0048
778.6,0.0028
778.4,0.0042
778.2,0.0042
778.0,0.0046
777.8,0.0034
777.6,0.0036
777.4,0.0050
777.2,0.0036
777.0,0.0043
776.8,0.0037
776.6,0.0044
776.4,0.0039
776.2,0.0033
776.0,0.0033
775.8,0.0048
775.6,0.0035
775.4,0.0029
775.2,0.0045
775.0,0.0038
774.8,0.0036
774.6,0.0043
774.4,0.0034
774.2,0.0036
774.0,0.0049
773.8,0.0042
773.6,0.0042
773.4,0.0035
773.2,0.0045
773.0,0.0052
772.8,0.0040
772.6,0.0043
772.4,0.0039
772.2,0.0041
772.0,0.0042
771.8,0.0037
771.6,0.0036
771.4,0.0031
771.2,0.0038
771.0,0.0045
770.8,0.0038
770.6,0.0048
770.4,0.0033
770.2,0.0038
770.0,0.0051
769.8,0.0040
769.6,0.0037
769.4,0.0045
769.2,0.0043
769.0,0.0044
768.8,0.0042
768.6,0.0047
768.4,0.0041
768.2,0.0037
768.0,0.0047
767.8,0.0043
767.6,0.0039
767.4,0.0049
767.2,0.0040
767.0,0.0031
766.8,0.0042
766.6,0.0039
766.4,0.0044
766.2,0.0037
766.0,0.0042
765.8,0.0041
765.6,0.0039
765.4,0.0048
765.2,0.0045
765.0,0.0042
764.8,0.0048
764.6,0.0041
764.4,0.0042
764.2,0.0038
764.0,0.0044
763.8,0.0040
763.6,0.0038
763.4,0.0042
763.2,0.0043
763.0,0.0044
762.8,0.0039
762.6,0.0047
762.4,0.0050
762.2,0.0050
762.0,0.0047
761.8,0.0044
761.6,0.0046
761.4,0.0048
761.2,0.0040
761.0,0.0045
760.8,0.0045
760.6,0.0042
760.4,0.0040
760.2,0.0038
760.0,0.0050
759.8,0.0050
759.6,0.0046
759.4,0.0045
759.2,0.0047
759.0,0.0037
758.8,0.0042
758.6,0.0047
758.4,0.0047
758.2,0.0048
758.0,0.0045
757.8,0.0052
757.6,0.0045
757.4,0.0049
757.2,0.0050
757.0,0.0044
756.8,0.0046
756.6,0.0048
756.4,0.0047
756.2,0.0048
756.0,0.0047
755.8,0.0049
755.6,0.0041
755.4,0.0038
755.2,0.0047
755.0,0.0039
754.8,0.0052
754.6,0.0055
754.4,0.0042
754.2,0.0051
754.0,0.0057
753.8,0.0046
753.6,0.0047
753.4,0.0047
753.2,0.0051
753.0,0.0047
752.8,0.0048
752.6,0.0038
752.4,0.0053
752.2,0.0045
752.0,0.0042
751.8,0.0044
751.6,0.0049
751.4,0.0045
751.2,0.0045
751.0,0.0053
750.8,0.0050
750.6,0.0048
750.4,0.0046
750.2,0.0045
750.0,0.0053
749.8,0.0054
749.6,0.0048
749.4,0.0054
749.2,0.0053
749.0,0.0049
748.8,0.0047
748.6,0.0041
748.4,0.0047
748.2,0.0055
748.0,0.0041
747.8,0.0056
747.6,0.0058
747.4,0.0053
747.2,0.0052
747.0,0.0053
746.8,0.0046
746.6,0.0054
746.4,0.0043
746.2,0.0051
746.0,0.0052
745.8,0.0050
745.6,0.0050
745.4,0.0046
745.2,0.0054
745.0,0.0049
744.8,0.0048
744.6,0.0056
744.4,0.0048
744.2,0.0044
744.0,0.0048
743.8,0.0042
743.6,0.0048
743.4,0.0048
743.2,0.0059
743.0,0.0050
742.8,0.0044
742.6,0.0046
742.4,0.0052
742.2,0.0051
742.0,0.0049
741.8,0.0047
741.6,0.0050
741.4,0.0051
741.2,0.0053
741.0,0.0049
740.8,0.0052
740.6,0.0054
740.4,0.0054
740.2,0.0054
740.0,0.0048
739.8,0.0054
739.6,0.0058
739.4,0.0055
739.2,0.0048
739.0,0.0051
738.8,0.0058
738.6,0.0047
738.4,0.0051
738.2,0.0062
738.0,0.0052
737.8,0.0052
737.6,0.0047
737.4,0.0051
737.2,0.0048
737.0,0.0049
736.8,0.0053
736.6,0.0051
736.4,0.0058
736.2,0.0055
736.0,0.0053
735.8,0.0055
735.6,0.0052
735.4,0.0050
735.2,0.0060
735.0,0.0057
734.8,0.0058
734.6,0.0056
734.4,0.0052
734.2,0.0060
734.0,0.0053
733.8,0.0050
733.6,0.0054
733.4,0.0058
733.2,0.0053
733.0,0.0056
732.8,0.0042
732.6,0.0058
732.4,0.0048
732.2,0.0054
732.0,0.0049
731.8,0.0054
731.6,0.0059
731.4,0.0052
731.2,0.0058
731.0,0.0049
730.8,0.0055
730.6,0.0048
730.4,0.0058
730.2,0.0059
730.0,0.0057
729.8,0.0057
729.6,0.0056
729.4,0.0049
729.2,0.0053
729.0,0.0056
728.8,0.0055
728.6,0.0050
728.4,0.0054
728.2,0.0053
728.0,0.0050
727.8,0.0053
727.6,0.0056
727.4,0.0052
727.2,0.0054
727.0,0.0053
726.8,0.0058
726.6,0.0054
726.4,0.0054
726.2,0.0056
726.0,0.0053
725.8,0.0065
725.6,0.0054
725.4,0.0053
725.2,0.0058
725.0,0.0058
724.8,0.0058
724.6,0.0047
724.4,0.0054
724.2,0.0056
724.0,0.0052
723.8,0.0056
723.6,0.0056
723.4,0.0050
723.2,0.0057
723.0,0.0063
722.8,0.0054
722.6,0.0053
722.4,0.0060
722.2,0.0057
722.0,0.0062
721.8,0.0060
721.6,0.0054
721.4,0.0057
721.2,0.0060
721.0,0.0058
720.8,0.0056
720.6,0.0055
720.4,0.0057
720.2,0.0058
720.0,0.0054
719.8,0.0054
719.6,0.0061
719.4,0.0057
719.2,0.0055
719.0,0.0064
718.8,0.0061
718.6,0.0063
718.4,0.0061
718.2,0.0058
718.0,0.0061
717.8,0.0065
717.6,0.0059
717.4,0.0057
717.2,0.0058
717.0,0.0063
716.8,0.0061
716.6,0.0061
716.4,0.0055
716.2,0.0061
716.0,0.0057
715.8,0.0061
715.6,0.0051
715.4,0.0059
715.2,0.0055
715.0,0.0059
714.8,0.0058
714.6,0.0061
714.4,0.0059
714.2,0.0057
714.0,0.0057
713.8,0.0062
713.6,0.0059
713.4,0.0062
713.2,0.0058
713.0,0.0057
712.8,0.0057
712.6,0.0058
712.4,0.0064
712.2,0.0062
712.0,0.0063
711.8,0.0062
711.6,0.0056
711.4,0.0061
711.2,0.0067
711.0,0.0062
710.8,0.0061
710.6,0.0065
710.4,0.0063
710.2,0.0065
710.0,0.0063
709.8,0.0059
709.6,0.0065
709.4,0.0061
709.2,0.0063
709.0,0.0064
708.8,0.0060
708.6,0.0060
708.4,0.0061
708.2,0.0062
708.0,0.0059
707.8,0.0058
707.6,0.0064
707.4,0.0068
707.2,0.0063
707.0,0.0066
706.8,0.0055
706.6,0.0063
706.4,0.0066
706.2,0.0061
706.0,0.0065
705.8,0.0058
705.6,0.0068
705.4,0.0060
705.2,0.0067
705.0,0.0062
704.8,0.0067
704.6,0.0063
704.4,0.0068
704.2,0.0061
704.0,0.0062
703.8,0.0063
703.6,0.0065
703.4,0.0062
703.2,0.0061
703.0,0.0066
702.8,0.0059
702.6,0.0065
702.4,0.0067
702.2,0.0067
702.0,0.0064
701.8,0.0061
701.6,0.0071
701.4,0.0067
701.2,0.0064
701.0,0.0066
700.8,0.0066
700.6,0.0069
700.4,0.0062
700.2,0.0069
700.0,0.0067
699.8,0.0064
699.6,0.0065
699.4,0.0069
699.2,0.0065
699.0,0.0064
698.8,0.0066
698.6,0.0070
698.4,0.0062
698.2,0.0063
698.0,0.0069
697.8,0.0063
697.6,0.0068
697.4,0.0072
697.2,0.0068
697.0,0.0066
696.8,0.0070
696.6,0.0065
696.4,0.0063
696.2,0.0060
696.0,0.0070
695.8,0.0065
695.6,0.0069
695.4,0.0068
695.2,0.0068
695.0,0.0067
694.8,0.0063
694.6,0.0069
694.4,0.0069
694.2,0.0066
694.0,0.0070
693.8,0.0069
693.6,0.0069
693.4,0.0067
693.2,0.0071
693.0,0.0069
692.8,0.0066
692.6,0.0068
692.4,0.0072
692.2,0.0069
692.0,0.0069
691.8,0.0067
691.6,0.0067
691.4,0.0070
691.2,0.0070
691.0,0.0068
690.8,0.0067
690.6,0.0070
690.4,0.0074
690.2,0.0076
690.0,0.0073
689.8,0.0071
689.6,0.0068
689.4,0.0076
689.2,0.0072
689.0,0.0070
688.8,0.0073
688.6,0.0072
688.4,0.0075
688.2,0.0077
688.0,0.0068
687.8,0.0064
687.6,0.0075
687.4,0.0071
687.2,0.0071
687.0,0.0064
686.8,0.0069
686.6,0.0069
686.4,0.0071
686.2,0.0075
686.0,0.0077
685.8,0.0073
685.6,0.0073
685.4,0.0077
685.2,0.0071
685.0,0.0075
684.8,0.0075
684.6,0.0074
684.4,0.0077
684.2,0.0080
684.0,0.0072
683.8,0.0073
683.6,0.0079
683.4,0.0073
683.2,0.0078
683.0,0.0084
682.8,0.0077
682.6,0.0072
682.4,0.0076
682.2,0.0076
682.0,0.0080
681.8,0.0075
681.6,0.0076
681.4,0.0073
681.2,0.0080
681.0,0.0077
680.8,0.0075
680.6,0.0067
680.4,0.0081
680.2,0.0079
680.0,0.0076
679.8,0.0072
679.6,0.0080
679.4,0.0080
679.2,0.0077
679.0,0.0073
678.8,0.0078
678.6,0.0076
678.4,0.0083
678.2,0.0072
678.0,0.0079
677.8,0.0076
677.6,0.0081
677.4,0.0084
677.2,0.0082
677.0,0.0084
676.8,0.0081
676.6,0.0080
676.4,0.0081
676.2,0.0082
676.0,0.0085
675.8,0.0081
675.6,0.0081
675.4,0.0082
675.2,0.0084
675.0,0.0081
674.8,0.0082
674.6,0.0083
674.4,0.0082
674.2,0.0084
674.0,0.0085
673.8,0.0081
673.6,0.0082
673.4,0.0085
673.2,0.0080
673.0,0.0083
672.8,0.0084
672.6,0.0084
672.4,0.0087
672.2,0.0089
672.0,0.0085
671.8,0.0087
671.6,0.0082
671.4,0.0088
671.2,0.0085
671.0,0.0086
670.8,0.0086
670.6,0.0089
670.4,0.0085
670.2,0.0089
670.0,0.0089
669.8,0.0088
669.6,0.0082
669.4,0.0084
669.2,0.0081
669.0,0.0090
668.8,0.0092
668.6,0.0087
668.4,0.0088
668.2,0.0087
668.0,0.0088
667.8,0.0088
667.6,0.0085
667.4,0.0089
667.2,0.0091
667.0,0.0089
666.8,0.0086
666.6,0.0089
666.4,0.0088
666.2,0.0088
666.0,0.0091
665.8,0.0090
665.6,0.0088
665.4,0.0089
665.2,0.0085
665.0,0.0091
664.8,0.0087
664.6,0.0085
664.4,0.0089
664.2,0.0090
664.0,0.0088
663.8,0.0086
663.6,0.0087
663.4,0.0090
663.2,0.0090
663.0,0.0085
662.8,0.0083
662.6,0.0084
662.4,0.0086
662.2,0.0085
662.0,0.0084
661.8,0.0085
661.6,0.0084
661.4,0.0087
661.2,0.0095
661.0,0.0093
660.8,0.0082
660.6,0.0084
660.4,0.0088
660.2,0.0084
660.0,0.0088
659.8,0.0092
659.6,0.0086
659.4,0.0084
659.2,0.0089
659.0,0.0085
658.8,0.0085
658.6,0.0087
658.4,0.0087
658.2,0.0085
658.0,0.0087
657.8,0.0087
657.6,0.0080
657.4,0.0084
657.2,0.0084
657.0,0.0080
656.8,0.0083
656.6,0.0088
656.4,0.0083
656.2,0.0083
656.0,0.0081
655.8,0.0082
655.6,0.0086
655.4,0.0083
655.2,0.0079
655.0,0.0082
654.8,0.0087
654.6,0.0081
654.4,0.0085
654.2,0.0084
654.0,0.0085
653.8,0.0082
653.6,0.0077
653.4,0.0083
653.2,0.0082
653.0,0.0082
652.8,0.0073
652.6,0.0082
652.4,0.0075
652.2,0.0079
652.0,0.0079
651.8,0.0078
651.6,0.0077
651.4,0.0082
651.2,0.0084
651.0,0.0082
650.8,0.0080
650.6,0.0078
650.4,0.0083
650.2,0.0079
650.0,0.0082
649.8,0.0079
649.6,0.0079
649.4,0.0074
649.2,0.0077
649.0,0.0074
648.8,0.0077
648.6,0.0079
648.4,0.0077
648.2,0.0077
648.0,0.0078
647.8,0.0074
647.6,0.0074
647.4,0.0077
647.2,0.0074
647.0,0.0076
646.8,0.0077
646.6,0.0073
646.4,0.0080
646.2,0.0074
646.0,0.0076
645.8,0.0077
645.6,0.0074
645.4,0.0079
645.2,0.0080
645.0,0.0076
644.8,0.0081
644.6,0.0075
644.4,0.0078
644.2,0.0074
644.0,0.0076
643.8,0.0073
643.6,0.0074
643.4,0.0073
643.2,0.0074
643.0,0.0072
642.8,0.0075
642.6,0.0075
642.4,0.0072
642.2,0.0074
642.0,0.0074
641.8,0.0080
641.6,0.0075
641.4,0.0074
641.2,0.0080
641.0,0.0075
640.8,0.0078
640.6,0.0078
640.4,0.0078
640.2,0.0076
640.0,0.0075
639.8,0.0078
639.6,0.0073
639.4,0.0077
639.2,0.0073
639.0,0.0074
638.8,0.0080
638.6,0.0075
638.4,0.0074
638.2,0.0073
638.0,0.0077
637.8,0.0077
637.6,0.0068
637.4,0.0079
637.2,0.0080
637.0,0.0074
636.8,0.0079
636.6,0.0077
636.4,0.0075
636.2,0.0075
636.0,0.0072
635.8,0.0074
635.6,0.0072
635.4,0.0078
635.2,0.0078
635.0,0.0077
634.8,0.0072
634.6,0.0075
634.4,0.0075
634.2,0.0074
634.0,0.0073
633.8,0.0075
633.6,0.0077
633.4,0.0075
633.2,0.0080
633.0,0.0077
632.8,0.0076
632.6,0.0071
632.4,0.0075
632.2,0.0070
632.0,0.0072
631.8,0.0075
631.6,0.0079
631.4,0.0077
631.2,0.0074
631.0,0.0075
630.8,0.0073
630.6,0.0073
630.4,0.0075
630.2,0.0069
630.0,0.0076
629.8,0.0074
629.6,0.0076
629.4,0.0079
629.2,0.0077
629.0,0.0078
628.8,0.0076
628.6,0.0074
628.4,0.0075
628.2,0.0074
628.0,0.0076
627.8,0.0077
627.6,0.0073
627.4,0.0075
627.2,0.0077
627.0,0.0075
626.8,0.0076
626.6,0.0073
626.4,0.0072
626.2,0.0076
626.0,0.0073
625.8,0.0074
625.6,0.0072
625.4,0.0073
625.2,0.0073
625.0,0.0070
624.8,0.0073
624.6,0.0073
624.4,0.0077
624.2,0.0077
624.0,0.0078
623.8,0.0074
623.6,0.0073
623.4,0.0076
623.2,0.0074
623.0,0.0077
622.8,0.0074
622.6,0.0070
622.4,0.0075
622.2,0.0075
622.0,0.0074
621.8,0.0078
621.6,0.0075
621.4,0.0075
621.2,0.0076
621.0,0.0078
620.8,0.0080
620.6,0.0075
620.4,0.0077
620.2,0.0075
620.0,0.0075
619.8,0.0072
619.6,0.0075
619.4,0.0074
619.2,0.0077
619.0,0.0071
618.8,0.0071
618.6,0.0075
618.4,0.0073
618.2,0.0066
618.0,0.0071
617.8,0.0073
617.6,0.0076
617.4,0.0074
617.2,0.0071
617.0,0.0075
616.8,0.0069
616.6,0.0073
616.4,0.0072
616.2,0.0075
616.0,0.0071
615.8,0.0070
615.6,0.0074
615.4,0.0073
615.2,0.0072
615.0,0.0072
614.8,0.0075
614.6,0.0071
614.4,0.0076
614.2,0.0076
614.0,0.0073
613.8,0.0069
613.6,0.0068
613.4,0.0075
613.2,0.0075
613.0,0.0068
612.8,0.0072
612.6,0.0067
612.4,0.0068
612.2,0.0074
612.0,0.0071
611.8,0.0068
611.6,0.0068
611.4,0.0070
611.2,0.0069
611.0,0.0070
610.8,0.0071
610.6,0.0072
610.4,0.0067
610.2,0.0069
610.0,0.0072
609.8,0.0066
609.6,0.0067
609.4,0.0062
609.2,0.0068
609.0,0.0068
608.8,0.0068
608.6,0.0066
608.4,0.0065
608.2,0.0067
608.0,0.0064
607.8,0.0063
607.6,0.0063
607.4,0.0065
607.2,0.0062
607.0,0.0066
606.8,0.0064
606.6,0.0061
606.4,0.0065
606.2,0.0059
606.0,0.0063
605.8,0.0062
605.6,0.0063
605.4,0.0065
605.2,0.0063
605.0,0.0063
604.8,0.0063
604.6,0.0064
604.4,0.0062
604.2,0.0059
604.0,0.0060
603.8,0.0062
603.6,0.0060
603.4,0.0058
603.2,0.0059
603.0,0.0059
602.8,0.0057
602.6,0.0061
602.4,0.0056
602.2,0.0058
602.0,0.0058
601.8,0.0060
601.6,0.0055
601.4,0.0056
601.2,0.0055
601.0,0.0056
600.8,0.0059
600.6,0.0054
600.4,0.0054
600.2,0.0057
600.0,0.0057
599.8,0.0053
599.6,0.0055
599.4,0.0050
599.2,0.0053
599.0,0.0051
598.8,0.0052
598.6,0.0055
598.4,0.0053
598.2,0.0052
598.0,0.0051
597.8,0.0050
597.6,0.0052
597.4,0.0049
597.2,0.0048
597.0,0.0049
596.8,0.0049
596.6,0.0048
596.4,0.0047
596.2,0.0049
596.0,0.0049
595.8,0.0049
595.6,0.0048
595.4,0.0049
595.2,0.0049
595.0,0.0048
594.8,0.0045
594.6,0.0045
594.4,0.0047
594.2,0.0045
594.0,0.0043
593.8,0.0047
593.6,0.0044
593.4,0.0041
593.2,0.0044
593.0,0.0040
592.8,0.0039
592.6,0.0042
592.4,0.0044
592.2,0.0041
592.0,0.0044
591.8,0.0036
591.6,0.0040
591.4,0.0039
591.2,0.0040
591.0,0.0036
590.8,0.0041
590.6,0.0039
590.4,0.0042
590.2,0.0043
590.0,0.0043
589.8,0.0036
589.6,0.0040
589.4,0.0039
589.2,0.0036
589.0,0.0035
588.8,0.0039
588.6,0.0039
588.4,0.0037
588.2,0.0036
588.0,0.0040
587.8,0.0038
587.6,0.0036
587.4,0.0036
587.2,0.0037
587.0,0.0037
586.8,0.0038
586.6,0.0038
586.4,0.0035
586.2,0.0036
586.0,0.0035
585.8,0.0031
585.6,0.0033
585.4,0.0032
585.2,0.0031
585.0,0.0032
584.8,0.0032
584.6,0.0031
584.4,0.0036
584.2,0.0028
584.0,0.0030
583.8,0.0030
583.6,0.0031
583.4,0.0031
583.2,0.0028
583.0,0.0031
582.8,0.0028
582.6,0.0029
582.4,0.0028
582.2,0.0025
582.0,0.0032
581.8,0.0028
581.6,0.0025
581.4,0.0028
581.2,0.0023
581.0,0.0026
580.8,0.0028
580.6,0.0026
580.4,0.0026
580.2,0.0024
580.0,0.0025