File: Figure1/UV-vis/Sample345.Sample.csv
Created as New Dataset,
nm,A
800.0,-0.0133
799.8,-0.0146
799.6,-0.0142
799.4,-0.0128
799.2,-0.0142
799.0,-0.0138
798.8,-0.0139
798.6,-0.0148
798.4,-0.0136
798.2,-0.0143
798.0,-0.0139
797.8,-0.0128
797.6,-0.0153
797.4,-0.0149
797.2,-0.0133
797.0,-0.0143
796.8,-0.0149
796.6,-0.0132
796.4,-0.0132
796.2,-0.0150
796.0,-0.0141
795.8,-0.0147
795.6,-0.0160
795.4,-0.0157
795.2,-0.0153
795.0,-0.0153
794.8,-0.0162
794.6,-0.0146
794.4,-0.0161
794.2,-0.0151
794.0,-0.0153
793.8,-0.0156
793.6,-0.0154
793.4,-0.0171
793.2,-0.0159
793.0,-0.0164
792.8,-0.0166
792.6,-0.0169
792.4,-0.0163
792.2,-0.0164
792.0,-0.0171
791.8,-0.0170
791.6,-0.0178
791.4,-0.0182
791.2,-0.0176
791.0,-0.0175
790.8,-0.0175
790.6,-0.0178
790.4,-0.0186
790.2,-0.0172
790.0,-0.0170
789.8,-0.0187
789.6,-0.0191
789.4,-0.0178
789.2,-0.0189
789.0,-0.0187
788.8,-0.0195
788.6,-0.0196
788.4,-0.0197
788.2,-0.0195
788.0,-0.0191
787.8,-0.0190
787.6,-0.0192
787.4,-0.0190
787.2,-0.0191
787.0,-0.0189
786.8,-0.0192
786.6,-0.0200
786.4,-0.0199
786.2,-0.0195
786.0,-0.0202
785.8,-0.0202
785.6,-0.0203
785.4,-0.0205
785.2,-0.0201
785.0,-0.0212
784.8,-0.0203
784.6,-0.0204
784.4,-0.0197
784.2,-0.0204
784.0,-0.0202
783.8,-0.0195
783.6,-0.0200
783.4,-0.0196
783.2,-0.0199
783.0,-0.0195
782.8,-0.0206
782.6,-0.0208
782.4,-0.0196
782.2,-0.0204
782.0,-0.0199
781.8,-0.0186
781.6,-0.0204
781.4,-0.0209
781.2,-0.0199
781.0,-0.0204
780.8,-0.0203
780.6,-0.0201
780.4,-0.0198
780.2,-0.0203
780.0,-0.0196
779.8,-0.0194
779.6,-0.0206
779.4,-0.0195
779.2,-0.0193
779.0,-0.0197
778.8,-0.0197
778.6,-0.0206
778.4,-0.0203
778.2,-0.0189
778.0,-0.0200
777.8,-0.0206
777.6,-0.0191
777.4,-0.0196
777.2,-0.0197
777.0,-0.0200
776.8,-0.0199
776.6,-0.0189
776.4,-0.0205
776.2,-0.0213
776.0,-0.0201
775.8,-0.0189
775.6,-0.0208
775.4,-0.0203
775.2,-0.0200
775.0,-0.0197
774.8,-0.0197
774.6,-0.0190
774.4,-0.0202
774.2,-0.0201
774.0,-0.0199
773.8,-0.0205
773.6,-0.0193
773.4,-0.0201
773.2,-0.0191
773.0,-0.0195
772.8,-0.0199
772.6,-0.0200
772.4,-0.0198
772.2,-0.0197
772.0,-0.0196
771.8,-0.0191
771.6,-0.0203
771.4,-0.0200
771.2,-0.0198
771.0,-0.0190
770.8,-0.0194
770.6,-0.0185
770.4,-0.0200
770.2,-0.0193
770.0,-0.0179
769.8,-0.0188
769.6,-0.0191
769.4,-0.0181
769.2,-0.0185
769.0,-0.0180
768.8,-0.0176
768.6,-0.0184
768.4,-0.0185
768.2,-0.0174
768.0,-0.0166
767.8,-0.0171
767.6,-0.0168
767.4,-0.0155
767.2,-0.0161
767.0,-0.0174
766.8,-0.0160
766.6,-0.0155
766.4,-0.0151
766.2,-0.0151
766.0,-0.0151
765.8,-0.0146
765.6,-0.0146
765.4,-0.0137
765.2,-0.0133
765.0,-0.0135
764.8,-0.0130
764.6,-0.0137
764.4,-0.0132
764.2,-0.0133
764.0,-0.0129
763.8,-0.0123
763.6,-0.0127
763.4,-0.0118
763.2,-0.0118
763.0,-0.0113
762.8,-0.0115
762.6,-0.0121
762.4,-0.0111
762.2,-0.0113
762.0,-0.0108
761.8,-0.0114
761.6,-0.0115
761.4,-0.0108
761.2,-0.0113
761.0,-0.0106
760.8,-0.0116
760.6,-0.0112
760.4,-0.0120
760.2,-0.0126
760.0,-0.0120
759.8,-0.0130
759.6,-0.0126
759.4,-0.0130
759.2,-0.0126
759.0,-0.0143
758.8,-0.0145
758.6,-0.0137
758.4,-0.0142
758.2,-0.0149
758.0,-0.0146
757.8,-0.0145
757.6,-0.0159
757.4,-0.0155
757.2,-0.0160
757.0,-0.0166
756.8,-0.0173
756.6,-0.0171
756.4,-0.0184
756.2,-0.0184
756.0,-0.0187
755.8,-0.0200
755.6,-0.0194
755.4,-0.0199
755.2,-0.0203
755.0,-0.0213
754.8,-0.0212
754.6,-0.0209
754.4,-0.0223
754.2,-0.0222
754.0,-0.0223
753.8,-0.0238
753.6,-0.0226
753.4,-0.0231
753.2,-0.0238
753.0,-0.0241
752.8,-0.0241
752.6,-0.0249
752.4,-0.0244
752.2,-0.0252
752.0,-0.0252
751.8,-0.0256
751.6,-0.0256
751.4,-0.0259
751.2,-0.0259
751.0,-0.0260
750.8,-0.0268
750.6,-0.0266
750.4,-0.0266
750.2,-0.0267
750.0,-0.0265
749.8,-0.0268
749.6,-0.0269
749.4,-0.0272
749.2,-0.0267
749.0,-0.0268
748.8,-0.0274
748.6,-0.0273
748.4,-0.0271
748.2,-0.0269
748.0,-0.0276
747.8,-0.0269
747.6,-0.0259
747.4,-0.0269
747.2,-0.0271
747.0,-0.0269
746.8,-0.0277
746.6,-0.0271
746.4,-0.0274
746.2,-0.0272
746.0,-0.0279
745.8,-0.0268
745.6,-0.0267
745.4,-0.0268
745.2,-0.0273
745.0,-0.0265
744.8,-0.0270
744.6,-0.0271
744.4,-0.0276
744.2,-0.0270
744.0,-0.0276
743.8,-0.0277
743.6,-0.0272
743.4,-0.0274
743.2,-0.0268
743.0,-0.0279
742.8,-0.0283
742.6,-0.0281
742.4,-0.0278
742.2,-0.0274
742.0,-0.0279
741.8,-0.0280
741.6,-0.0276
741.4,-0.0278
741.2,-0.0276
741.0,-0.0279
740.8,-0.0279
740.6,-0.0273
740.4,-0.0272
740.2,-0.0277
740.0,-0.0278
739.8,-0.0273
739.6,-0.0271
739.4,-0.0271
739.2,-0.0274
739.0,-0.0274
738.8,-0.0263
738.6,-0.0271
738.4,-0.0264
738.2,-0.0264
738.0,-0.0261
737.8,-0.0260
737.6,-0.0253
737.4,-0.0265
737.2,-0.0253
737.0,-0.0251
736.8,-0.0245
736.6,-0.0239
736.4,-0.0232
736.2,-0.0239
736.0,-0.0234
735.8,-0.0225
735.6,-0.0232
735.4,-0.0224
735.2,-0.0221
735.0,-0.0213
734.8,-0.0212
734.6,-0.0203
734.4,-0.0204
734.2,-0.0198
734.0,-0.0203
733.8,-0.0193
733.6,-0.0192
733.4,-0.0188
733.2,-0.0188
733.0,-0.0183
732.8,-0.0184
732.6,-0.0182
732.4,-0.0180
732.2,-0.0172
732.0,-0.0174
731.8,-0.0169
731.6,-0.0166
731.4,-0.0171
731.2,-0.0168
731.0,-0.0178
730.8,-0.0169
730.6,-0.0185
730.4,-0.0171
730.2,-0.0175
730.0,-0.0178
729.8,-0.0177
729.6,-0.0174
729.4,-0.0185
729.2,-0.0186
729.0,-0.0175
728.8,-0.0182
728.6,-0.0186
728.4,-0.0185
728.2,-0.0193
728.0,-0.0188
727.8,-0.0198
727.6,-0.0195
727.4,-0.0200
727.2,-0.0201
727.0,-0.0213
726.8,-0.0212
726.6,-0.0210
726.4,-0.0210
726.2,-0.0212
726.0,-0.0219
725.8,-0.0217
725.6,-0.0224
725.4,-0.0225
725.2,-0.0220
725.0,-0.0228
724.8,-0.0229
724.6,-0.0230
724.4,-0.0236
724.2,-0.0231
724.0,-0.0240
723.8,-0.0238
723.6,-0.0240
723.4,-0.0244
723.2,-0.0244
723.0,-0.0237
722.8,-0.0241
722.6,-0.0247
722.4,-0.0246
722.2,-0.0247
722.0,-0.0241
721.8,-0.0247
721.6,-0.0248
721.4,-0.0246
721.2,-0.0243
721.0,-0.0249
720.8,-0.0251
720.6,-0.0250
720.4,-0.0254
720.2,-0.0253
720.0,-0.0251
719.8,-0.0256
719.6,-0.0250
719.4,-0.0255
719.2,-0.0259
719.0,-0.0255
718.8,-0.0252
718.6,-0.0256
718.4,-0.0255
718.2,-0.0263
718.0,-0.0254
717.8,-0.0246
717.6,-0.0251
717.4,-0.0254
717.2,-0.0249
717.0,-0.0238
716.8,-0.0246
716.6,-0.0242
716.4,-0.0237
716.2,-0.0239
716.0,-0.0231
715.8,-0.0233
715.6,-0.0234
715.4,-0.0227
715.2,-0.0226
715.0,-0.0219
714.8,-0.0220
714.6,-0.0215
714.4,-0.0211
714.2,-0.0209
714.0,-0.0210
713.8,-0.0202
713.6,-0.0204
713.4,-0.0201
713.2,-0.0201
713.0,-0.0196
712.8,-0.0197
712.6,-0.0199
712.4,-0.0194
712.2,-0.0189
712.0,-0.0191
711.8,-0.0194
711.6,-0.0191
711.4,-0.0200
711.2,-0.0196
711.0,-0.0205
710.8,-0.0197
710.6,-0.0201
710.4,-0.0209
710.2,-0.0210
710.0,-0.0214
709.8,-0.0216
709.6,-0.0216
709.4,-0.0223
709.2,-0.0225
709.0,-0.0222
708.8,-0.0232
708.6,-0.0235
708.4,-0.0240
708.2,-0.0243
708.0,-0.0238
707.8,-0.0246
707.6,-0.0243
707.4,-0.0245
707.2,-0.0249
707.0,-0.0254
706.8,-0.0256
706.6,-0.0262
706.4,-0.0258
706.2,-0.0256
706.0,-0.0248
705.8,-0.0270
705.6,-0.0257
705.4,-0.0261
705.2,-0.0262
705.0,-0.0260
704.8,-0.0264
704.6,-0.0271
704.4,-0.0261
704.2,-0.0270
704.0,-0.0276
703.8,-0.0269
703.6,-0.0273
703.4,-0.0272
703.2,-0.0278
703.0,-0.0269
702.8,-0.0280
702.6,-0.0273
702.4,-0.0274
702.2,-0.0273
702.0,-0.0272
701.8,-0.0273
701.6,-0.0263
701.4,-0.0266
701.2,-0.0269
701.0,-0.0264
700.8,-0.0269
700.6,-0.0255
700.4,-0.0256
700.2,-0.0255
700.0,-0.0247
699.8,-0.0246
699.6,-0.0244
699.4,-0.0239
699.2,-0.0241
699.0,-0.0237
698.8,-0.0227
698.6,-0.0220
698.4,-0.0220
698.2,-0.0215
698.0,-0.0210
697.8,-0.0210
697.6,-0.0208
697.4,-0.0201
697.2,-0.0201
697.0,-0.0198
696.8,-0.0191
696.6,-0.0197
696.4,-0.0195
696.2,-0.0197
696.0,-0.0190
695.8,-0.0189
695.6,-0.0186
695.4,-0.0185
695.2,-0.0185
695.0,-0.0185
694.8,-0.0188
694.6,-0.0187
694.4,-0.0183
694.2,-0.0187
694.0,-0.0182
693.8,-0.0182
693.6,-0.0186
693.4,-0.0185
693.2,-0.0183
693.0,-0.0187
692.8,-0.0186
692.6,-0.0192
692.4,-0.0191
692.2,-0.0190
692.0,-0.0191
691.8,-0.0193
691.6,-0.0192
691.4,-0.0194
691.2,-0.0199
691.0,-0.0198
690.8,-0.0202
690.6,-0.0200
690.4,-0.0203
690.2,-0.0204
690.0,-0.0209
689.8,-0.0211
689.6,-0.0221
689.4,-0.0207
689.2,-0.0215
689.0,-0.0219
688.8,-0.0214
688.6,-0.0217
688.4,-0.0219
688.2,-0.0220
688.0,-0.0235
687.8,-0.0232
687.6,-0.0231
687.4,-0.0236
687.2,-0.0237
687.0,-0.0245
686.8,-0.0235
686.6,-0.0245
686.4,-0.0237
686.2,-0.0236
686.0,-0.0243
685.8,-0.0249
685.6,-0.0251
685.4,-0.0248
685.2,-0.0251
685.0,-0.0248
684.8,-0.0249
684.6,-0.0254
684.4,-0.0246
684.2,-0.0248
684.0,-0.0255
683.8,-0.0257
683.6,-0.0253
683.4,-0.0260
683.2,-0.0253
683.0,-0.0249
682.8,-0.0255
682.6,-0.0261
682.4,-0.0247
682.2,-0.0258
682.0,-0.0253
681.8,-0.0254
681.6,-0.0251
681.4,-0.0265
681.2,-0.0255
681.0,-0.0254
680.8,-0.0260
680.6,-0.0261
680.4,-0.0256
680.2,-0.0258
680.0,-0.0261
679.8,-0.0262
679.6,-0.0261
679.4,-0.0258
679.2,-0.0266
679.0,-0.0264
678.8,-0.0262
678.6,-0.0261
678.4,-0.0260
678.2,-0.0267
678.0,-0.0263
677.8,-0.0260
677.6,-0.0266
677.4,-0.0262
677.2,-0.0260
677.0,-0.0262
676.8,-0.0267
676.6,-0.0265
676.4,-0.0264
676.2,-0.0266
676.0,-0.0267
675.8,-0.0267
675.6,-0.0267
675.4,-0.0268
675.2,-0.0270
675.0,-0.0270
674.8,-0.0267
674.6,-0.0269
674.4,-0.0269
674.2,-0.0266
674.0,-0.0264
673.8,-0.0266
673.6,-0.0263
673.4,-0.0263
673.2,-0.0269
673.0,-0.0265
672.8,-0.0265
672.6,-0.0265
672.4,-0.0265
672.2,-0.0265
672.0,-0.0270
671.8,-0.0267
671.6,-0.0263
671.4,-0.0262
671.2,-0.0261
671.0,-0.0264
670.8,-0.0262
670.6,-0.0262
670.4,-0.0263
670.2,-0.0259
670.0,-0.0258
669.8,-0.0260
669.6,-0.0263
669.4,-0.0259
669.2,-0.0258
669.0,-0.0253
668.8,-0.0258
668.6,-0.0255
668.4,-0.0258
668.2,-0.0261
668.0,-0.0255
667.8,-0.0255
667.6,-0.0259
667.4,-0.0251
667.2,-0.0251
667.0,-0.0253
666.8,-0.0257
666.6,-0.0253
666.4,-0.0249
666.2,-0.0247
666.0,-0.0249
665.8,-0.0249
665.6,-0.0248
665.4,-0.0251
665.2,-0.0250
665.0,-0.0250
664.8,-0.0250
664.6,-0.0247
664.4,-0.0252
664.2,-0.0247
664.0,-0.0247
663.8,-0.0249
663.6,-0.0250
663.4,-0.0244
663.2,-0.0246
663.0,-0.0244
662.8,-0.0243
662.6,-0.0247
662.4,-0.0248
662.2,-0.0246
662.0,-0.0248
661.8,-0.0248
661.6,-0.0244
661.4,-0.0243
661.2,-0.0244
661.0,-0.0243
660.8,-0.0248
660.6,-0.0245
660.4,-0.0244
660.2,-0.0248
660.0,-0.0241
659.8,-0.0242
659.6,-0.0247
659.4,-0.0248
659.2,-0.0241
659.0,-0.0246
658.8,-0.0242
658.6,-0.0244
658.4,-0.0244
658.2,-0.0241
658.0,-0.0240
657.8,-0.0243
657.6,-0.0246
657.4,-0.0243
657.2,-0.0247
657.0,-0.0246
656.8,-0.0245
656.6,-0.0245
656.4,-0.0244
656.2,-0.0247
656.0,-0.0240
655.8,-0.0247
655.6,-0.0244
655.4,-0.0247
655.2,-0.0247
655.0,-0.0243
654.8,-0.0242
654.6,-0.0248
654.4,-0.0246
654.2,-0.0245
654.0,-0.0245
653.8,-0.0246
653.6,-0.0249
653.4,-0.0247
653.2,-0.0251
653.0,-0.0247
652.8,-0.0254
652.6,-0.0251
652.4,-0.0252
652.2,-0.0251
652.0,-0.0253
651.8,-0.0257
651.6,-0.0252
651.4,-0.0252
651.2,-0.0253
651.0,-0.0252
650.8,-0.0255
650.6,-0.0254
650.4,-0.0252
650.2,-0.0255
650.0,-0.0256
649.8,-0.0255
649.6,-0.0258
649.4,-0.0261
649.2,-0.0259
649.0,-0.0261
648.8,-0.0261
648.6,-0.0262
648.4,-0.0262
648.2,-0.0263
648.0,-0.0262
647.8,-0.0262
647.6,-0.0266
647.4,-0.0268
647.2,-0.0268
647.0,-0.0268
646.8,-0.0269
646.6,-0.0271
646.4,-0.0267
646.2,-0.0272
646.0,-0.0270
645.8,-0.0271
645.6,-0.0275
645.4,-0.0270
645.2,-0.0271
645.0,-0.0272
644.8,-0.0274
644.6,-0.0272
644.4,-0.0274
644.2,-0.0276
644.0,-0.0275
643.8,-0.0279
643.6,-0.0280
643.4,-0.0281
643.2,-0.0283
643.0,-0.0285
642.8,-0.0285
642.6,-0.0288
642.4,-0.0283
642.2,-0.0287
642.0,-0.0287
641.8,-0.0284
641.6,-0.0292
641.4,-0.0292
641.2,-0.0288
641.0,-0.0288
640.8,-0.0285
640.6,-0.0292
640.4,-0.0291
640.2,-0.0288
640.0,-0.0293
639.8,-0.0293
639.6,-0.0298
639.4,-0.0300
639.2,-0.0301
639.0,-0.0300
638.8,-0.0301
638.6,-0.0301
638.4,-0.0297
638.2,-0.0308
638.0,-0.0306
637.8,-0.0306
637.6,-0.0309
637.4,-0.0306
637.2,-0.0309
637.0,-0.0311
636.8,-0.0306
636.6,-0.0308
636.4,-0.0315
636.2,-0.0314
636.0,-0.0317
635.8,-0.0317
635.6,-0.0318
635.4,-0.0318
635.2,-0.0314
635.0,-0.0318
634.8,-0.0323
634.6,-0.0323
634.4,-0.0326
634.2,-0.0323
634.0,-0.0327
633.8,-0.0325
633.6,-0.0323
633.4,-0.0326
633.2,-0.0328
633.0,-0.0326
632.8,-0.0325
632.6,-0.0332
632.4,-0.0330
632.2,-0.0333
632.0,-0.0335
631.8,-0.0336
631.6,-0.0335
631.4,-0.0336
631.2,-0.0338
631.0,-0.0338
630.8,-0.0338
630.6,-0.0338
630.4,-0.0341
630.2,-0.0343
630.0,-0.0341
629.8,-0.0344
629.6,-0.0342
629.4,-0.0344
629.2,-0.0346
629.0,-0.0348
628.8,-0.0345
628.6,-0.0347
628.4,-0.0348
628.2,-0.0350
628.0,-0.0350
627.8,-0.0353
627.6,-0.0353
627.4,-0.0355
627.2,-0.0351
627.0,-0.0358
626.8,-0.0358
626.6,-0.0358
626.4,-0.0357
626.2,-0.0360
626.0,-0.0361
625.8,-0.0356
625.6,-0.0362
625.4,-0.0362
625.2,-0.0364
625.0,-0.0367
624.8,-0.0362
624.6,-0.0362
624.4,-0.0368
624.2,-0.0368
624.0,-0.0368
623.8,-0.0365
623.6,-0.0370
623.4,-0.0368
623.2,-0.0371
623.0,-0.0370
622.8,-0.0369
622.6,-0.0375
622.4,-0.0370
622.2,-0.0376
622.0,-0.0372
621.8,-0.0372
621.6,-0.0379
621.4,-0.0376
621.2,-0.0378
621.0,-0.0377
620.8,-0.0373
620.6,-0.0380
620.4,-0.0380
620.2,-0.0380
620.0,-0.0380
619.8,-0.0382
619.6,-0.0383
619.4,-0.0381
619.2,-0.0383
619.0,-0.0384
618.8,-0.0389
618.6,-0.0388
618.4,-0.0389
618.2,-0.0394
618.0,-0.0388
617.8,-0.0390
617.6,-0.0387
617.4,-0.0390
617.2,-0.0390
617.0,-0.0390
616.8,-0.0390
616.6,-0.0393
616.4,-0.0395
616.2,-0.0392
616.0,-0.0397
615.8,-0.0395
615.6,-0.0394
615.4,-0.0396
615.2,-0.0395
615.0,-0.0395
614.8,-0.0397
614.6,-0.0397
614.4,-0.0396
614.2,-0.0399
614.0,-0.0401
613.8,-0.0402
613.6,-0.0399
613.4,-0.0401
613.2,-0.0401
613.0,-0.0404
612.8,-0.0403
612.6,-0.0401
612.4,-0.0405
612.2,-0.0398
612.0,-0.0404
611.8,-0.0402
611.6,-0.0407
611.4,-0.0405
611.2,-0.0408
611.0,-0.0406
610.8,-0.0405
610.6,-0.0405
610.4,-0.0408
610.2,-0.0404
610.0,-0.0407
609.8,-0.0409
609.6,-0.0410
609.4,-0.0409
609.2,-0.0407
609.0,-0.0409
608.8,-0.0406
608.6,-0.0409
608.4,-0.0405
608.2,-0.0406
608.0,-0.0406
607.8,-0.0408
607.6,-0.0410
607.4,-0.0409
607.2,-0.0412
607.0,-0.0409
606.8,-0.0407
606.6,-0.0408
606.4,-0.0408
606.2,-0.0406
606.0,-0.0406
605.8,-0.0410
605.6,-0.0409
605.4,-0.0405
605.2,-0.0405
605.0,-0.0405
604.8,-0.0407
604.6,-0.0406
604.4,-0.0410
604.2,-0.0406
604.0,-0.0407
603.8,-0.0406
603.6,-0.0408
603.4,-0.0407
603.2,-0.0407
603.0,-0.0408
602.8,-0.0408
602.6,-0.0404
602.4,-0.0406
602.2,-0.0407
602.0,-0.0408
601.8,-0.0405
601.6,-0.0405
601.4,-0.0405
601.2,-0.0408
601.0,-0.0407
600.8,-0.0406
600.6,-0.0408
600.4,-0.0408
600.2,-0.0403
600.0,-0.0407
599.8,-0.0406
599.6,-0.0406
599.4,-0.0407
599.2,-0.0403
599.0,-0.0407
598.8,-0.0402
598.6,-0.0405
598.4,-0.0403
598.2,-0.0405
598.0,-0.0405
597.8,-0.0405
597.6,-0.0405
597.4,-0.0405
597.2,-0.0406
597.0,-0.0405
596.8,-0.0409
596.6,-0.0404
596.4,-0.0403
596.2,-0.0405
596.0,-0.0403
595.8,-0.0405
595.6,-0.0402
595.4,-0.0400
595.2,-0.0405
595.0,-0.0405
594.8,-0.0403
594.6,-0.0407
594.4,-0.0406
594.2,-0.0404
594.0,-0.0409
593.8,-0.0407
593.6,-0.0411
593.4,-0.0411
593.2,-0.0409
593.0,-0.0409
592.8,-0.0410
592.6,-0.0409
592.4,-0.0411
592.2,-0.0408
592.0,-0.0403
591.8,-0.0412
591.6,-0.0414
591.4,-0.0407
591.2,-0.0410
591.0,-0.0411
590.8,-0.0409
590.6,-0.0409
590.4,-0.0409
590.2,-0.0410
590.0,-0.0409
589.8,-0.0410
589.6,-0.0407
589.4,-0.0410
589.2,-0.0414
589.0,-0.0410
588.8,-0.0414
588.6,-0.0413
588.4,-0.0412
588.2,-0.0415
588.0,-0.0412
587.8,-0.0415
587.6,-0.0413
587.4,-0.0417
587.2,-0.0414
587.0,-0.0417
586.8,-0.0420
586.6,-0.0417
586.4,-0.0417
586.2,-0.0421
586.0,-0.0421
585.8,-0.0423
585.6,-0.0420
585.4,-0.0426
585.2,-0.0421
585.0,-0.0421
584.8,-0.0421
584.6,-0.0423
584.4,-0.0421
584.2,-0.0424
584.0,-0.0427
583.8,-0.0428
583.6,-0.0426
583.4,-0.0423
583.2,-0.0425
583.0,-0.0426
582.8,-0.0428
582.6,-0.0429
582.4,-0.0430
582.2,-0.0429
582.0,-0.0428
581.8,-0.0433
581.6,-0.0433
581.4,-0.0432
581.2,-0.0433
581.0,-0.0431
580.8,-0.0430
580.6,-0.0432
580.4,-0.0432
580.2,-0.0433
580.0,-0.0434